Ax,Ay,Az,Gx,Gy,Gz
0.8216162121591195,0.6886886886886886,0.7189689689689689,0.4737359820011511,0.4454593020213823,0.0
0.5201401050788093,0.5275275275275274,0.7525025025025025,0.5017702356244659,0.4951933306590858,0.4997558295690392
0.4658493870402803,0.6626626626626626,0.2104604604604605,1.0,0.0,1.0
0.0,0.9409409409409408,0.0,0.0700158710780124,0.5131084639935818,0.9473045328496432
0.0,0.5392892892892892,0.8123123123123123,0.0144514013638663,0.1081221549784606,0.8029998081518042
0.5208906680010009,0.5275275275275274,0.752002002002002,0.5017248896872875,0.4952229799257024,0.4997715262396009
0.6209657242932201,0.4984984984984984,0.7502502502502502,0.5349617175645743,0.5137345867415456,0.9840225334426288
0.8151113335001252,0.3688688688688688,0.6819319319319319,0.3912831156146991,0.1309817395399131,0.3578771125102464
0.6159619714786091,1.0,0.0,1.0,0.3620123131660184,1.0
0.3367525644233176,0.5975975975975975,0.7867867867867867,0.5309486021242827,0.9306555976071298,0.3705286289830302
0.4893670252689518,0.5050050050050049,0.807057057057057,0.6630761986152048,0.6326141932783369,0.515231002668434
0.4288216162121592,0.6086086086086085,0.6924424424424425,0.3781589549505555,0.3507804733418211,0.0
0.7338003502626972,0.4602102102102101,0.761011011011011,0.5034794286411916,0.512941032840923,0.5060275214957183
0.7353014761070804,0.4446946946946946,0.7312312312312312,0.4940631703786385,0.5076006767009087,0.2310759195632837
0.4283212409306981,0.5710710710710709,0.783033033033033,0.5668102621343983,1.0,0.2483370249577062
0.3332499374530899,0.5082582582582582,0.9604604604604604,0.5043026318084308,0.0,0.070962903535239
0.5203902927195397,0.5277777777777777,0.7530030030030029,0.5018469749027679,0.4951619373179622,0.4997401328984774
0.8809106830122594,0.5427927927927927,0.537037037037037,1.0,1.0,0.229214992064461
0.5206404803602703,0.5277777777777777,0.7530030030030029,0.5018312782322061,0.4951933306590858,0.4997715262396009
0.5484113084813611,0.6243743743743743,0.3966466466466466,0.8360709489509393,0.5931824127526728,0.6090534907651255
1.0000000000000002,0.8663663663663663,0.0,0.974590578509514,0.0016481504089854,0.8098836702303922
0.0,0.3886386386386385,0.0,0.5104696792646982,0.9935137869089768,0.7256588241449675
0.7455591693770329,0.6574074074074073,0.5105105105105104,0.4197743167588119,0.2502589950642692,0.5180982611577166
0.5203902927195397,0.5277777777777777,0.7525025025025025,0.5019080175105081,0.4951619373179622,0.4997401328984774
0.4951213410057544,0.6096096096096095,0.6909409409409408,0.0,0.3750004360186267,0.4083750457819558
0.5419064298223669,0.679179179179179,0.7409909909909909,0.0,0.4661980919824895,0.4541726982576696
0.5961971478608958,0.6621621621621621,0.612112112112112,0.529010935347158,0.0,0.6534000732511293
0.4330748061045785,0.5137637637637636,1.0,0.0007325112928824,0.8035491916214661,0.6146676666027173
0.7177883412559422,0.604104104104104,0.6156156156156156,0.5342292062716919,0.1847916703001552,0.5073094162582625
0.7958468851638731,0.9717217217217216,1.0,0.7002964926661667,0.7835272162826796,0.1993494602089401
0.4998749061796348,0.5475475475475474,0.7807807807807807,0.1544221009121509,0.4961386190418054,0.5296510106911767
0.7275456592444335,0.5915915915915915,0.585085085085085,0.5882833074628948,0.2046601670823377,0.6545755794687549
0.5206404803602703,0.5277777777777777,0.7525025025025025,0.5018469749027679,0.495177633988524,0.4996790902907372
0.5203902927195397,0.528028028028028,0.7522522522522521,0.5018469749027679,0.4951462406474005,0.4996790902907372
0.9224418313735304,1.0,0.1581581581581582,0.0,1.0,0.3514990320386487
0.1238428821616213,0.7922922922922921,0.714964964964965,0.6737726075657952,0.5557929434745452,1.0
0.3667750813109833,0.6739239239239239,0.7765265265265264,0.4592392347001064,0.4415508310515025,1.0
0.9769827370527896,0.7580080080080078,0.0,0.0038456842876327,0.9936358721244573,0.6178122329385911
0.8048536402301728,1.0,1.0,0.0742278110120864,0.9994506165303382,0.3189929713797373
0.5203902927195397,0.5277777777777777,0.752002002002002,0.5018312782322061,0.4952229799257024,0.4996790902907372
0.4701025769326996,0.6889389389389389,0.4256756756756756,0.5834609414514188,0.5050665364424368,0.5576242217067513
0.6087065298974232,0.618118118118118,0.6081081081081081,0.2208975007412317,0.0,0.6629994593369029
0.5223917938453841,0.5275275275275274,0.73998998998999,0.4646877234595462,1.0,0.1700036625564644
0.6847635726795098,0.5487987987987987,0.7137137137137137,0.4518216858224183,0.7353802954462214,0.6046723756038858
0.2982236677508132,1.0,0.0,0.0,0.9488149013725866,0.9507543122242182
1.0000000000000002,0.9747247247247246,1.0,1.0,0.969218829028376,0.4419031341018888
0.495371528646485,0.7167167167167166,0.6286286286286286,0.0,0.7935539006226346,0.6942079285627082
0.2869652239179385,0.6286286286286286,0.7915415415415414,0.5669480440204405,0.7852364092994053,0.3894971833196714
0.516387290467851,0.6516516516516515,0.7505005005005004,1.0,0.7999023318276157,0.4327606955369133
0.7828371278458846,1.0,0.996996996996997,0.0,1.0,0.9680904128224358
0.5208906680010009,0.5272772772772771,0.7527527527527527,0.5018469749027679,0.4952997192040044,0.4997854788356559
0.4285714285714287,0.8293293293293291,0.5698198198198198,0.0,0.3332926382615065,0.4975879449570086
0.6224668501376034,0.5415415415415414,0.7517517517517517,0.527484870153653,0.5370842562394266,1.0
0.8571428571428573,0.9294294294294292,1.0,0.0,1.0,0.963252350140398
0.0668001000750563,0.7322322322322321,0.8203203203203202,0.5740900291260442,0.4770479794896838,0.9157298079773968
0.1641230923192395,0.6554054054054053,0.7382382382382382,0.5956380696583358,0.5203271883774875,0.0805308962798891
0.6960220165123845,0.5455455455455455,0.6864364364364364,0.495864799344228,0.9964595287510682,0.4448174826028568
0.5281461095821868,0.5062562562562561,0.7392392392392392,0.4955281929644034,0.5048537593525996,0.3912517222735755
0.5206404803602703,0.5275275275275274,0.7530030030030029,0.5017702356244659,0.4951619373179622,0.4997854788356559
0.3920440330247687,0.6609109109109108,0.0062562562562563,1.0,0.675162634947765,0.1448994541046793
0.758819114335752,0.6406406406406405,0.622122122122122,0.5029300451715297,0.2631389852974519,0.6975042293806791
0.4653490117588192,0.7249749749749749,0.521021021021021,0.6620838202207998,0.5392660934475121,0.5912273052304795
0.5203902927195397,0.5277777777777777,0.7527527527527527,0.5018469749027679,0.4951933306590858,0.499694786961299
0.5203902927195397,0.5275275275275274,0.7525025025025025,0.5018923208399463,0.4951933306590858,0.4997401328984774
0.5063797848386291,0.5045045045045045,0.7752752752752752,0.3247309765073164,1.0,0.086664806320526
0.5208906680010009,0.527027027027027,0.7525025025025025,0.5018469749027679,0.4952386765962642,0.4997104836318607
0.5208906680010009,0.5275275275275274,0.7530030030030029,0.5018155815616443,0.4951933306590858,0.4997261803024225
0.5206404803602703,0.5277777777777777,0.7515015015015014,0.5018469749027679,0.495177633988524,0.4996790902907372
0.8358769076807608,0.7557557557557556,0.8028028028028027,0.4819767340460784,0.4785740446831888,0.0
0.5203902927195397,0.5275275275275274,0.7527527527527527,0.5018312782322061,0.4951619373179622,0.4997104836318607
0.5061295971978985,0.6293793793793793,0.8010510510510509,1.0,0.5878403125381516,0.5565864973751679
1.0000000000000002,0.902152152152152,0.9679679679679678,1.0,0.0,0.0032509548807924
0.5203902927195397,0.5275275275275274,0.7527527527527527,0.5018016289655894,0.4952090273296475,0.4997401328984774
0.7455591693770329,0.4672172172172171,0.7067067067067067,0.5331914819401085,0.4854422100912151,0.7469940875874217
0.5281461095821868,0.7152152152152151,0.52002002002002,0.973568550848492,0.5791269163018644,0.5715262396009557
0.7595696772579437,0.325075075075075,0.7790290290290289,0.5017405863578492,0.4609780769834487,0.8248530617227967
0.4645984488366276,0.6238738738738737,0.7157157157157157,0.4436419763852312,0.3770305387446152,0.0
0.675256442331749,0.5995995995995995,0.5785785785785785,0.5408985471859358,0.3763119800477876,0.6494009104068925
0.3167375531648737,0.523023023023023,0.724974974974975,0.5901913249734029,0.1928649911924237,0.6013307288487364
0.1803852889667251,0.7937937937937937,0.0,0.0,0.0,0.5172297120532989
0.0,0.8308308308308308,0.0755755755755756,0.0,0.0,0.0
0.6922692019014263,0.5200200200200199,0.7119619619619619,0.5081500601705705,0.4774456284772485,0.0
0.5121341005754317,0.669169169169169,0.4852352352352352,1.0,0.6759701414444426,0.467846242391475
0.531898924193145,0.6736736736736736,0.6183683683683683,1.0,0.7105063048293423,0.3740237542947835
0.5203902927195397,0.5275275275275274,0.7527527527527527,0.5018312782322061,0.4950712454436053,0.4997261803024225
0.5203902927195397,0.5272772772772771,0.7522522522522521,0.5018312782322061,0.495177633988524,0.4997261803024225
0.5326494871153367,0.6954454454454453,0.4569569569569569,0.9992517920365558,0.6952142595531681,0.5120864363325601
0.5861896422316739,0.5503003003003002,0.7575075075075075,0.5148943962886094,0.5506496677538064,1.0
0.2924693520140106,0.6511511511511511,0.7327327327327327,0.5695728761532692,0.5114446169140345,1.0
0.4313234926194647,0.7677677677677677,0.7197197197197197,0.4538064426112284,0.4091999930237019,0.0
0.5306479859894923,0.7152152152152151,0.7452452452452452,0.4274046427263372,0.3564434832656051,0.0
0.5046284713535153,0.844094094094094,0.7557557557557557,0.0,0.1476463714529884,0.4630692223171774
0.4886164623467602,0.767017017017017,0.5530530530530531,0.0,0.2814517676195127,0.5348710256902175
0.3422566925193896,0.5688188188188187,0.0,0.9782984809111046,0.3397317613408445,0.530550953136718
0.641981486114586,0.601101101101101,0.76001001001001,0.4819767340460784,0.4331286952578614,0.0
0.5206404803602703,0.5275275275275274,0.7517517517517517,0.5018155815616443,0.4951322880513455,0.4997261803024225
0.3705278959219416,0.4912412412412411,0.6258758758758758,0.6179500148246333,0.3429373702844586,0.6164535988977449
0.4015511633725295,0.572072072072072,0.8323323323323323,0.4806948392835342,0.8069222317177389,0.3579381551179866
1.0000000000000002,1.0,0.0,0.0,0.9994820098714616,0.0970734429774839
0.6422316737553166,0.4734734734734734,0.7349849849849849,0.5006418194185256,0.4547674276645098,0.0480562289621013
0.0,0.5635635635635634,0.4334334334334334,0.5310410380731465,0.4781170971623907,0.0
0.5206404803602703,0.5275275275275274,0.7532532532532532,0.5019080175105081,0.4951165913807838,0.4996790902907372
0.5203902927195397,0.537037037037037,0.766016016016016,0.0,0.6763363970908837,0.5862689014074681
0.6987740805604205,0.4934934934934934,0.7575075075075075,0.5063484312049811,0.504822366011476,0.647996930428868
0.8001000750562923,0.5485485485485484,0.7717717717717717,0.5347018504630517,0.48391614489771,1.0
0.5206404803602703,0.5277777777777777,0.7522522522522521,0.5018312782322061,0.4951619373179622,0.4997104836318607
0.1233425068801601,0.6549049049049048,0.8095595595595595,0.52763660463575,0.5021364912709071,0.6674241763608141
0.4726044533400051,0.7397397397397396,0.487987987987988,0.657245757538762,0.5358773566806774,0.6167745086070077
0.3890417813360021,0.6346346346346345,0.776026026026026,0.6347977745609292,0.5819802221950922,0.7213561923365366
0.7655741806354768,0.4481981981981981,0.752002002002002,0.5135357622477632,0.527713343914052,0.0599124474597554
0.4140605454090569,0.5117617617617617,0.7182182182182182,0.5877949666009732,0.0,0.89404572963357
0.5203902927195397,0.5275275275275274,0.7522522522522521,0.5018766241693845,0.4951619373179622,0.4997401328984774
0.3264948711533652,0.646146146146146,0.7735235235235235,0.533833301358634,0.5302317875019621,1.0
0.5206404803602703,0.5272772772772771,0.752002002002002,0.5018155815616443,0.4951933306590858,0.4997558295690392
0.1333500125093821,0.9359359359359358,0.0,1.0,0.0301236548825366,0.7438948671887263
0.8373780335251441,0.4449449449449448,0.745995995995996,0.5009313357866648,0.497085651499032,0.9901721401538274
0.3880410307730799,0.5015015015015014,0.745995995995996,0.4889216387324066,0.0,0.7569736819156914
0.4000500375281462,0.8903903903903903,0.0,0.0,1.0,0.5842701920226032
0.4978734050537904,0.837087087087087,0.6491491491491491,0.7475731203237002,0.5480858782287179,1.0
0.6467350512884665,0.6726726726726726,0.8063063063063063,0.5432181662800635,0.5318642412403858,1.0
0.3447585689266951,0.5758258258258258,0.8696196196196195,0.551901913249734,0.6186214835097755,0.5175488776880548
0.0112584438328747,0.9994994994994992,0.1263763763763764,0.0,0.1812808483178401,0.0502537628407486
0.521391043282462,0.5272772772772771,0.7517517517517517,0.5018155815616443,0.4951165913807838,0.4997715262396009
0.7197898423817866,0.517017017017017,0.7382382382382382,0.4813506112981146,0.4497619338298132,0.4746376685211992
0.9041781336002004,0.3613613613613612,0.7124624624624624,0.5014196766485864,0.4785897413537506,0.426199487242095
0.4165624218163624,0.559059059059059,0.8983983983983983,0.6267541029352774,0.9002249856113853,0.326211695763643
0.5201401050788093,0.5275275275275274,0.7525025025025025,0.5018766241693845,0.4952229799257024,0.4997558295690392
0.0673004753565174,1.0,0.0,0.0063798245461046,1.0,1.0
0.7020265198899176,0.5845845845845845,0.5728228228228228,0.2515565864973752,0.0934405357796885,0.5612100388928615
0.0245183887915937,0.7497497497497496,0.7765265265265264,0.5166960252541989,0.5189999476777648,0.8395800268587474
0.5206404803602703,0.5275275275275274,0.7517517517517517,0.5018609274988227,0.495177633988524,0.4997558295690392
0.1598699024268202,0.629129129129129,0.6203703703703703,0.5146955717948271,1.0,0.3268378185116068
0.6917688266199651,0.4684684684684684,0.6951951951951951,0.4656330118422659,0.4721349216038509,0.0
0.7230422817112836,1.0,1.0,0.0,1.0,0.4269163018644156
0.5203902927195397,0.5277777777777777,0.7527527527527527,0.5018312782322061,0.495254373266826,0.499694786961299
0.5203902927195397,0.5277777777777777,0.7525025025025025,0.5017859322950277,0.4951933306590858,0.4997715262396009
0.5251438578934202,0.6926926926926926,0.6706706706706707,1.0,0.5799361668730488,0.4760556010952788
0.6915186389792346,0.5232732732732732,0.6634134134134133,0.4951619373179622,0.0,0.6745051188586777
0.0,0.5948448448448448,1.0,0.0,0.3448750370615833,0.8319340042206602
0.3825369026770079,0.5600600600600599,0.7307307307307307,0.39404572963357,0.4610705129323125,0.1151717041352006
0.5273955466599951,0.6233733733733733,0.7562562562562563,0.4726075657952108,0.3918935416921011,0.0
0.4923692769577184,0.427177177177177,0.6393893893893894,0.4233147880077437,0.0,0.8412438739382946
0.4555916937703279,0.7224724724724724,0.0,0.9540959589793676,1.0,1.0
0.5856892669502128,0.5225225225225224,0.5397897897897898,0.5546645272686049,0.0,0.7944852364092994
0.5616712534400802,0.6008508508508508,0.7312312312312312,0.0,0.4882030800355791,0.5336955194725919
0.5193895421566176,0.6986986986986986,0.5690690690690691,1.0,0.5782723197935016,0.4948567242792612
0.5113835376532401,0.7427427427427427,0.6193693693693694,1.0,0.8729406840260217,0.4094581160507177
0.43832874655992,0.8325825825825824,0.2977977977977978,0.0,1.0,0.3590979646650505
0.5203902927195397,0.5275275275275274,0.7522522522522521,0.5018016289655894,0.4952386765962642,0.4997261803024225
0.3877908431323493,0.5037537537537536,0.7484984984984985,0.6698658806704223,0.1085337565620803,0.6385963688368768
0.6297222917187892,0.5417917917917917,0.8873873873873873,0.0,0.8494235833754817,1.0
0.961471103327496,0.2074574574574574,0.7585085085085085,0.4952229799257024,0.4831068943265256,0.1923452569893786
0.6069552164123093,0.4702202202202201,0.8423423423423423,0.2064914453145439,1.0,0.3114097354238972
0.0993244933700275,1.0,0.2157157157157157,0.8589462301829534,1.0,0.0
0.7075306479859896,0.4754754754754754,0.781031031031031,0.512482341245618,0.4662434379196679,0.6366290527931353
0.4295721791343508,0.4134134134134133,0.9797297297297296,0.0057066117864555,0.8769381027957515,0.3937858625320474
0.5881911433575183,0.5585585585585585,0.7197197197197197,0.5499781990686642,0.7118945881368052,0.5043340251495544
0.5534150612959721,0.8968968968968967,0.6709209209209209,0.4634965205713588,0.4882641226433193,0.0
0.4816112084063048,0.7014514514514514,0.4997497497497497,0.0,0.1507141985105604,0.6865305125834975
0.357017763322492,0.6486486486486486,0.3338338338338338,1.0,0.8254024451924586,0.440666585276523
0.4811108331248437,0.6704204204204203,0.7349849849849849,1.0,0.6417862811099291,0.523347925423374
0.3557668251188393,0.5365365365365364,0.8373373373373373,0.4669462999459337,1.0,0.1912621867206167
0.0,0.5350350350350349,0.9311811811811812,0.7678863561051328,0.9960775764340652,0.9687915307741948
0.3595196397297974,0.5603103103103102,0.7154654654654654,0.6135845963339553,0.5814308387254303,0.4217887228142386
0.5206404803602703,0.5275275275275274,0.7530030030030029,0.5018923208399463,0.4951462406474005,0.4997715262396009
0.5203902927195397,0.5277777777777777,0.7525025025025025,0.5018312782322061,0.495177633988524,0.4997401328984774
0.5196397297973482,0.5277777777777777,0.7530030030030029,0.5018923208399463,0.495177633988524,0.4997261803024225
0.4573430072554417,0.7817817817817816,0.5137637637637638,0.0,0.3379022271831453,0.4127858102098122
1.0000000000000002,1.0,0.0,0.0,1.0,0.1909255803407921
0.4548411308481362,0.592092092092092,0.7565065065065064,0.0,0.4655266232973473,0.2886861886739801
1.0000000000000002,0.9414414414414412,0.0,0.0,1.0,0.2072239566074262
0.304978734050538,0.6278778778778777,0.8288288288288288,0.5496572893594014,0.8992029579503635,0.2954462214625809
0.5083812859644735,0.6173673673673673,0.4054054054054054,0.3529187086872351,0.5622931091616233,0.5548005650801402
0.2599449587190394,0.562062062062062,0.7547547547547546,0.0,0.4242304271238467,0.4801768491549959
0.6312234175631726,0.6076076076076075,0.516016016016016,0.5188168198545442,0.0,0.7953241362471004
0.4886164623467602,0.5450450450450449,0.7477477477477477,0.206170535605281,0.4254373266825959,0.4299387829848091
0.5429071803852891,0.5943443443443442,0.7207207207207207,0.4715087988558871,0.5442401939410851,1.0
0.495371528646485,0.7377377377377377,0.5065065065065065,0.002213230549209,0.3412438739382947,0.460032788600729
0.6524893670252692,0.7917917917917916,0.7274774774774775,0.4159600258123027,0.458048031811919,0.0
0.3890417813360021,0.6073573573573573,0.7462462462462462,0.4029579503636395,0.4389573922597973,0.0
0.028771578684013,0.6879379379379378,0.8035535535535534,0.5576695676439297,0.5089889600083716,0.8571602978879258
0.5206404803602703,0.5272772772772771,0.752002002002002,0.5018016289655894,0.4953154158745662,0.4997261803024225
0.5203902927195397,0.5272772772772771,0.752002002002002,0.5018609274988227,0.495254373266826,0.4997401328984774
0.9309482111583688,0.7032032032032031,1.0,0.0,0.6605124090901163,0.6869281615710623
0.0,1.0,0.2167167167167167,0.0,0.6571847149310218,0.856534175139962
0.5206404803602703,0.5275275275275274,0.752002002002002,0.5019080175105081,0.4952386765962642,0.499694786961299
0.7660745559169378,0.5843343343343342,0.555055055055055,0.5149711355669114,0.6378185116068158,0.5784397509461604
0.7783337503127348,0.8245745745745745,0.0065065065065065,1.0,0.229061513507857,0.0
0.7773329997498126,0.5635635635635634,0.72997997997998,0.496093273104627,0.4846172628494689,1.0
0.6462346760070055,0.6984484484484483,0.8185685685685685,0.5508641889181506,0.5351605420583567,1.0
0.5051288466349764,0.518018018018018,0.8303303303303302,0.3043741388632122,1.0,0.0945236060484503
0.4718538904178135,0.5225225225225224,0.7677677677677677,0.6054816261750702,0.0275598653574481,0.8772433158344525
0.3567675756817614,0.5427927927927927,0.7232232232232232,0.6993041142717618,0.4864188918150583,0.4060711233583898
0.4533400050037529,0.7767767767767766,0.6448948948948948,0.0,0.1864555173797025,0.5360447878333362
0.451088316237178,0.4949949949949949,0.7124624624624624,0.2709977850253763,0.4681811046967926,0.4974362104749115
0.2021516137102827,0.5808308308308308,0.5928428428428428,0.5663829638802169,1.0,0.2369063606397265
0.388541406054541,0.592092092092092,0.7622622622622621,0.4434588485620105,0.491194167814849,0.4353558784031254
0.3440080060045035,0.5332832832832832,0.8826326326326326,0.3918168024137991,1.0,0.1088075762596578
0.359769827370528,0.4757257257257256,0.6586586586586586,0.6436175593421352,0.4331740411950399,0.5033416467551494
0.5203902927195397,0.5275275275275274,0.7517517517517517,0.5018923208399463,0.4952997192040044,0.4997261803024225
1.0000000000000002,1.0,0.0,0.0,1.0,0.5338629506252507
0.6467350512884665,0.4176676676676676,0.7582582582582582,0.4972530826516909,0.4553778537419118,0.786244484364372
0.536902677007756,0.4552052052052051,0.7622622622622621,0.6923156077227619,0.5904354954043637,0.5025637895250885
0.5208906680010009,0.5275275275275274,0.7532532532532532,0.5017702356244659,0.4951462406474005,0.4997401328984774
0.9689767325494124,0.939189189189189,0.0,0.00956799274465,1.0,0.0539616652423391
0.6282211658744059,0.5232732732732732,0.587087087087087,0.4641522925859392,0.0,0.952920452761742
0.4811108331248437,0.7745245245245245,0.6966966966966966,0.000992378394405,0.4615588537942341,0.5650871165216178
0.8991743807855894,0.601101101101101,0.7394894894894894,0.5224479829778328,0.5195022411357413,0.0
0.6052039029271955,0.5508008008008007,0.7632632632632632,0.4766660271726808,0.5163594188743743,1.0
0.307730798098574,0.5545545545545545,0.6076076076076076,0.3008476202103354,1.0,0.2740359628163315
0.5198899174380787,0.528028028028028,0.7522522522522521,0.5018312782322061,0.495254373266826,0.4997401328984774
0.4821115836877659,0.8000500500500499,0.6398898898898899,1.0,0.7475277743865218,0.4755672602333571
0.4951213410057544,0.6826826826826826,0.6861861861861861,1.0,0.8356419066222509,0.4445890088424578
0.6997748311233427,0.6826826826826826,0.7407407407407407,0.5323979280394858,0.4651289743097825,1.0
0.5201401050788093,0.5275275275275274,0.7522522522522521,0.5018155815616443,0.4952840225334426,0.4997261803024225
0.5206404803602703,0.5272772772772771,0.7525025025025025,0.5018766241693845,0.4951933306590858,0.4996651376946823
0.5173880410307732,0.4997497497497496,0.752002002002002,0.7093151019411549,0.5640633447860892,0.5275912586985716
0.7305479109332,0.6256256256256255,0.591091091091091,0.4700734255367389,0.375213213108464,0.6691804593892251
1.0000000000000002,0.8506006006006004,1.0,0.9799169820534732,0.0132758951462407,0.6919336554057589
0.5399049286965225,0.5723223223223222,0.7212212212212212,0.4574376057345169,0.5540541011912029,0.4602455656905663
0.5203902927195397,0.5277777777777777,0.7527527527527527,0.5019219701065629,0.4951462406474005,0.4997558295690392
0.4911183387540657,0.6829329329329328,0.7712712712712713,1.0,0.7439716064670283,0.4996023510124353
0.5486614961220917,0.5918418418418417,0.606106106106106,0.0,0.3095924097877461,0.5892756858572998
0.4688516387290469,0.7117117117117115,0.4456956956956956,0.8517588991401712,0.6744144269843207,0.5619425501857439
0.5203902927195397,0.5275275275275274,0.7525025025025025,0.5019080175105081,0.4951322880513455,0.4997401328984774
0.5724293219914938,0.4459459459459459,0.6976976976976976,0.0522228229589967,0.3892844062298341,0.4632227008737813
0.2586940205153866,0.6536536536536536,0.7317317317317317,0.6040619495264837,0.4811535308788391,0.9970385614873468
0.5206404803602703,0.5277777777777777,0.7525025025025025,0.5018766241693845,0.4952683258628809,0.4997558295690392
0.2101576182136603,0.5127627627627627,0.7134634634634633,0.6212306189720425,0.5590578509513926,0.5311474266180651
0.4050537903427572,0.5638138138138137,0.7707707707707707,0.5163594188743743,0.4865863229677172,0.0
0.1035776832624469,0.7527527527527527,1.0,1.0,1.0,0.0
0.3805354015511635,0.6006006006006005,0.694944944944945,0.5015714111306835,0.7808413415421107,0.3919092383626629
0.3087315486614962,0.9166666666666664,0.0,0.865172576172454,0.7475888169942619,0.0
0.0,1.0,0.0,0.0034951253117533,0.0,0.0
0.3997998498874157,0.5768268268268267,0.7722722722722721,0.5148647470219928,0.5014650225857649,0.2425222805518251
0.5143857893420066,0.6243743743743743,0.7254754754754754,1.0,0.6086401451069989,0.5134136770322828
0.5344008006004505,0.7052052052052051,0.477977977977978,0.0,0.1995325880321607,0.5999877914784519
0.5744308231173382,0.614114114114114,0.7119619619619619,0.0,0.4857927690670945,0.4613757259710135
1.0000000000000002,1.0,0.0,0.9878071751225213,0.0,0.749268360744371
0.5491618714035528,0.9977477477477475,0.6546546546546546,1.0,1.0,0.0
0.5243932949712286,0.6318818818818818,0.8175675675675675,0.5495212515478661,0.5668416554755219,1.0
0.4378283712784589,0.7762762762762762,0.7172172172172171,1.0,0.5423182238345222,0.4789856462668085
0.5201401050788093,0.5307807807807807,0.761011011011011,0.5020457993965503,0.495177633988524,0.4997854788356559
0.4505879409557169,0.7179679679679678,0.7289789789789789,0.0,0.3975862008825017,0.4109231386364825
0.5206404803602703,0.5275275275275274,0.7522522522522521,0.5017859322950277,0.4951933306590858,0.4997104836318607
0.203152364273205,1.0,0.0,1.0,1.0,0.5627221514903117
0.318238679009257,0.6073573573573573,0.7487487487487487,0.4303207353018121,0.4534244902942254,0.5627831940980519
0.6680010007505631,0.8731231231231229,0.7494994994994995,0.5441041561295499,0.5149850881629663,1.0
0.7202902176632476,0.4887387387387386,0.7537537537537538,0.4606728639447477,0.470669899018086,0.0
0.3945459094320742,0.5245245245245245,0.7662662662662663,0.4796728116225125,0.0,0.6669829255105778
0.6107080310232675,0.5357857857857857,0.7607607607607607,0.5008092505711844,0.495406107748923,0.0
0.7478108581436078,1.0,0.7337337337337337,0.0,0.9303189912273052,1.0
0.0,1.0,0.0,0.0,0.382630761986152,0.2550360151385667
0.5156367275456594,0.5117617617617617,0.8135635635635635,0.4017667474754521,1.0,0.3155588886757242
0.4776082061546161,0.554054054054054,0.741991991991992,0.0,0.3932521757329473,0.4579259465964386
0.7190392794595949,0.6251251251251251,0.7565065065065064,0.5495509008144828,0.5755550517118091,1.0
0.4280710532899676,0.4784784784784784,0.8293293293293292,0.3672009348239357,1.0,0.1805483370249577
0.0,1.0,0.1501501501501501,1.0,0.0,1.0
0.7365524143107332,0.4577077077077076,0.7572572572572571,0.4975879449570086,0.5193348099830825,0.8234333850742104
0.8193645233925446,0.5955955955955955,0.3608608608608608,1.0,1.0,0.6304637494113748
0.1413560170127596,0.6751751751751751,0.8058058058058057,0.5494898582067426,0.5094459075291696,0.7570190278528699
0.8111083312484365,0.4001501501501501,0.7497497497497497,0.4975739923609537,0.5086994436402323,0.7224392626052984
0.5203902927195397,0.5272772772772771,0.7525025025025025,0.5018609274988227,0.4952090273296475,0.4997261803024225
0.4716037027770829,0.7239739739739739,0.5495495495495495,0.0,0.1601444093691682,0.3582747614978112
0.0177633224918689,0.6188688688688687,0.7972972972972973,0.5887106057170762,0.5026858747405689,0.9492892896384532
0.8408806604953718,0.4074074074074073,0.6971971971971972,0.5153984338210928,0.4649161972199452,0.1726895372970333
0.9281961471103328,0.9054054054054052,1.0,0.0,1.0,0.6497375167867171
0.1976482361771329,0.6233733733733733,0.0,0.0460418229066745,0.0,0.2688630378289761
0.9244433324993748,0.4792292292292291,0.7672672672672671,0.4900343582677852,0.4796571149519507,0.0
0.0,1.0,1.0,0.7664509827859847,0.7321746865026074,1.0
0.5206404803602703,0.5275275275275274,0.7527527527527527,0.5018016289655894,0.495254373266826,0.4997401328984774
0.5133850387790845,0.7442442442442441,0.505005005005005,0.0,0.4197289708216335,0.4614053752376301
0.4343257443082313,0.6156156156156155,0.6541541541541541,0.0,0.4179290859305509,0.4393079512356768
0.5208906680010009,0.5275275275275274,0.7522522522522521,0.5017859322950277,0.4951933306590858,0.4997104836318607
0.560670502877158,0.6106106106106105,0.7527527527527527,1.0,0.5159635139613165,0.5178697873973176
0.5206404803602703,0.5275275275275274,0.7522522522522521,0.5018312782322061,0.4951619373179622,0.4996790902907372
0.5203902927195397,0.5275275275275274,0.7525025025025025,0.5019080175105081,0.4952386765962642,0.4997261803024225
0.3955466599949964,0.5715715715715715,0.2952952952952953,0.9869979245513368,0.9665329542878072,0.0
0.5201401050788093,0.5275275275275274,0.7525025025025025,0.5018469749027679,0.4952229799257024,0.499694786961299
1.0000000000000002,0.6148648648648648,0.8956456456456456,0.7200742975739923,0.0,0.666447494636971
0.6482361771328498,0.5528028028028027,0.555055055055055,0.4981844184383557,0.0,0.6548337024957707
0.0,0.5908408408408408,1.0,0.0,0.4129985872996494,0.9498840190452936
0.4388291218413812,0.5392892892892892,0.7942942942942943,0.7076669515321694,0.1940858433472278,0.6778624622843887
0.5521641230923193,0.7197197197197196,0.6076076076076076,0.0,0.1766119608629681,0.6059246210998134
0.6567425569176885,0.6261261261261261,0.5730730730730731,0.6020928894082355,0.0,0.7324049043375133
0.4916187140355267,0.7019519519519518,0.4737237237237237,0.0935940143362925,0.3279522821214922,0.6724296701955108
0.5206404803602703,0.5277777777777777,0.7530030030030029,0.5018609274988227,0.4951462406474005,0.4998011755062176
0.5103827870903179,0.527027027027027,0.7510010010010009,0.3223346181348867,0.3973716797181575,0.4613600293004517
0.5203902927195397,0.5275275275275274,0.752002002002002,0.5018155815616443,0.4951933306590858,0.4997854788356559
0.5203902927195397,0.5277777777777777,0.7527527527527527,0.5018766241693845,0.4951933306590858,0.4996651376946823
0.2514385789342007,0.5798298298298298,0.7682682682682682,0.4549662521582922,1.0,0.3334304201475487
0.5308981736302228,0.5402902902902902,0.788038038038038,0.5488340861921621,0.5350384568428763,0.0
0.4833625218914187,0.6716716716716715,0.4096596596596596,0.6107923330484678,0.5612867781711635,0.6092052252472225
0.5206404803602703,0.5272772772772771,0.7527527527527527,0.5018469749027679,0.4951322880513455,0.4997401328984774
0.5203902927195397,0.528028028028028,0.7530030030030029,0.5018766241693845,0.4951462406474005,0.4997558295690392
0.4618463847885916,0.7920420420420419,0.7164664664664664,1.0,0.8828295864799344,0.3886286342152537
0.5111333500125095,0.4737237237237236,0.7965465465465464,0.2006784449831696,1.0,0.1171861101906273
0.4593445083812861,0.8143143143143141,0.5823323323323323,0.0,0.3523379318764498,0.5413554947067338
0.2019014260695522,0.8225725725725724,0.795045045045045,0.5721837556900431,0.4677538064426112,1.0
0.0,1.0,0.2417417417417418,0.0,0.2956293492858015,0.945244780857038
0.3895421566174632,0.5518018018018017,0.8696196196196195,0.4697839091685997,1.0,0.356215009505206
0.5258944208156119,1.0,0.9767267267267266,0.0,0.7811779479219352,1.0
0.503627720790593,0.6949449449449449,0.607107107107107,1.0,0.4530739313183459,0.517458185813698
0.6629972479359522,0.6068568568568568,0.5583083083083082,0.6454802309154647,0.1796780438460331,0.7309555784223102
0.5381536152114087,0.7585085085085084,0.5085085085085085,1.0,0.7234926836074437,0.446252855922005
0.6574931198398801,0.5910910910910909,0.6671671671671671,0.4352023998465214,0.586588067042224,0.5108045415700159
0.5929447085313987,1.0,1.0,0.0,0.9986867118963324,0.6343844289028027
0.4345759319489618,0.7850350350350348,0.6666666666666666,1.0,0.6478905418839493,0.4556987634511746
0.5098824118088567,0.6999499499499499,0.5127627627627628,1.0,0.6876606728639447,0.5532134572788949
0.4783587690768077,0.4634634634634634,0.6844344344344344,0.4506322270087378,1.0,0.4179901285382911
0.5751813860395298,0.6749249249249248,0.6033533533533533,0.4335699461080977,0.0,0.7230653853532623
0.3732799599699776,0.553053053053053,0.7074574574574574,0.5627361040863665,0.7320682979576887,0.54111306835028
0.4861145859394547,0.7034534534534533,0.4649649649649649,0.4977257268430507,0.52710291783665,0.6121195737481905
0.4465849387040281,0.5072572572572571,1.0,0.0,0.6091441826394823,0.7153286708408183
0.394045534150613,0.559059059059059,0.7042042042042042,0.7096046183092941,0.0453232642098471,0.8318886582834819
0.581686264698524,0.582082082082082,0.7174674674674675,0.5313445070373406,0.8806006592601636,0.4847236513943875
0.5201401050788093,0.5277777777777777,0.7522522522522521,0.5018312782322061,0.495177633988524,0.4996790902907372
0.5081310983237429,0.5588088088088087,0.7777777777777777,0.0,0.2945602316130945,0.5631180564033695
0.4861145859394547,0.4907407407407406,0.6729229229229229,0.4216980309398818,0.0,0.7250483980675655
0.5456592444333251,0.7627627627627627,0.5425425425425425,1.0,0.7649249175924795,0.5558539860822854
0.2546910182636979,0.6851851851851851,0.7907907907907907,0.4131067199190749,0.4586741545598828,0.0
0.4435826870152616,0.5277777777777777,0.5955955955955956,0.5231665416746604,0.5184802134747196,0.5906186232275843
0.7345509131848889,0.9517017017017017,0.991991991991992,1.0,0.0895041596176988,0.0388387951933306
0.5203902927195397,0.5277777777777777,0.7527527527527527,0.5018155815616443,0.4951322880513455,0.4996790902907372
0.5203902927195397,0.5275275275275274,0.7525025025025025,0.5018766241693845,0.495177633988524,0.4997401328984774
0.6790092569427072,0.5865865865865865,0.5165165165165165,0.3043584421926505,0.3410764427856358,0.5535029736470342
0.4906179634726046,0.5858358358358358,0.8295795795795795,0.2312137014493259,0.4906901302823657,0.4281981966269599
0.5091318488866652,0.8978978978978978,0.4914914914914914,1.0,0.0,0.5670090866281807
0.5206404803602703,0.5275275275275274,0.7527527527527527,0.5018312782322061,0.4952683258628809,0.4997104836318607
0.5203902927195397,0.5275275275275274,0.752002002002002,0.5018469749027679,0.4951933306590858,0.4997261803024225
0.4816112084063048,0.5608108108108107,0.7477477477477477,0.5165582433681567,0.4800844132061321,0.4158675898634389
0.6820115086314738,0.5648148148148147,0.6306306306306306,0.65311055688299,0.0045624989099534,0.6803198632645586
0.3902927195396548,0.4677177177177176,0.771021021021021,0.4846015661789071,0.4515164727837173,0.8671416362907023
0.7035276457343009,0.5563063063063062,0.6504004004004004,0.4205068280516943,0.9732319444686676,0.5359994418961578
0.3014761070803103,0.6133633633633633,0.6959459459459459,0.5782566231229398,0.5681531995046828,0.657474231299161
0.4913685263947962,0.6786786786786786,0.5002502502502503,0.3542145560458343,0.4985035840731116,0.4920330676526501
0.8756567425569178,0.9126626626626624,0.7712712712712713,0.0,1.0,1.0
0.7370527895921943,0.6298798798798798,0.497997997997998,0.5662312293981199,0.3369708913964804,0.6790536651725761
0.5126344758568928,0.7352352352352352,0.4937437437437437,1.0,0.6981896506618763,0.670263529657987
0.8181135851888919,0.8816316316316315,0.7875375375375375,0.0,1.0,1.0
0.5201401050788093,0.5272772772772771,0.752002002002002,0.5017545389539041,0.4952386765962642,0.4997558295690392
0.2041531148361272,0.5863363363363362,0.8225725725725725,0.4638784728883618,0.9835184959101452,0.2114219439454454
0.2006504878658995,0.7730230230230228,0.2404904904904904,1.0,1.0,1.0
0.5203902927195397,0.5275275275275274,0.7525025025025025,0.5018155815616443,0.4952229799257024,0.499694786961299
0.5203902927195397,0.5275275275275274,0.7525025025025025,0.5018609274988227,0.495177633988524,0.4997401328984774
0.5203902927195397,0.5275275275275274,0.7530030030030029,0.5018923208399463,0.4952229799257024,0.4997715262396009
0.5203902927195397,0.5277777777777777,0.7522522522522521,0.5018469749027679,0.4952683258628809,0.4997104836318607
0.3992994746059546,0.4972472472472471,0.6241241241241241,0.6097546087168844,9.06918743569518e-05,0.7312293981198876
0.5166374781085816,0.8373373373373372,0.5725725725725725,1.0,0.5600362767497428,0.4944294260250798
0.5203902927195397,0.5275275275275274,0.7530030030030029,0.5018609274988227,0.4951619373179622,0.4997401328984774
0.6572429321991495,0.6063563563563562,0.7027027027027026,0.5424699583166193,0.6834033869926923,1.0
1.0000000000000002,0.5595595595595595,0.1156156156156156,0.6536442436820901,0.0235310532465947,0.7458185813697961
0.0,1.0,0.1881881881881881,0.1891099987791478,0.2951567050944417,1.0
0.9882411808856644,0.6961961961961961,1.0,0.1364459249699147,0.8027556377208435,0.5551511240560196
0.5201401050788093,0.528028028028028,0.7522522522522521,0.5018155815616443,0.4952840225334426,0.499694786961299
0.9787340505379036,1.0,0.5898398398398398,1.0,0.0,0.3571759945584875
0.4518388791593696,0.5795795795795795,0.6801801801801801,0.3192074925440815,0.4223241536878455,1.0
0.362521891418564,0.596096096096096,0.872122122122122,0.4506775729459162,0.959117149484626,0.3266546906883862
0.7127845884413312,0.4664664664664664,0.7487487487487487,0.5194272459319462,0.4957427141287476,0.6696374069100232
0.5496622466850138,0.6313813813813813,0.5905905905905906,0.0,0.3894675340530548,0.5073565062699479
0.5203902927195397,0.5275275275275274,0.7522522522522521,0.5018312782322061,0.4952090273296475,0.4996790902907372
0.591693770327746,0.664164164164164,0.6228728728728729,1.0,0.0,0.380112318398242
0.4560920690517889,0.7189689689689689,0.4304304304304304,0.6504246821424211,0.6023074105725796,0.6674695222979926
0.5206404803602703,0.5277777777777777,0.7532532532532532,0.5017859322950277,0.4951619373179622,0.4997715262396009
0.7430572929697274,0.6028528528528527,0.546046046046046,0.537358075937004,0.6120742278110121,0.6220538221392817
0.1598699024268202,0.6859359359359358,0.3398398398398398,0.7947294068402602,1.0,1.0
0.5206404803602703,0.5275275275275274,0.752002002002002,0.5018312782322061,0.4952229799257024,0.4997261803024225
0.8526394796097074,0.6759259259259258,1.0,0.0,1.0,0.6926347733575178
0.5161371028271204,0.4136636636636636,0.7522522522522521,0.491958072448855,0.5111097546087169,0.4647330693967246
0.7242932199149363,0.622122122122122,0.7287287287287287,0.4995430524792019,0.4853340774717896,1.0
0.5018764073054792,0.5778278278278277,0.7407407407407407,0.6637005772886617,0.5261419327833685,0.4888745487207213
1.0000000000000002,0.7517517517517516,0.4041541541541541,1.0,0.5349320682979577,1.0
0.490367775831874,0.5575575575575574,0.7630130130130129,0.6301724889687288,0.0,0.8714285714285714
0.6002001501125847,0.5593093093093092,0.836086086086086,0.6238101051676928,0.4866159722343338,0.0
0.3942957217913436,0.97022022022022,0.3796296296296296,0.7271395434012942,0.3615257163786037,0.0
0.5511633725293972,0.5823323323323323,0.8330830830830831,0.12600763904634,0.5679404224148455,0.4441617105882763
0.5806855141356019,0.4767267267267266,0.7712712712712713,0.8702234159443292,0.0,0.5298951811221375
0.5206404803602703,0.5277777777777777,0.7527527527527527,0.5018609274988227,0.495100894710222,0.4998168721767794
0.5203902927195397,0.5277777777777777,0.7530030030030029,0.5018155815616443,0.495177633988524,0.4998325688473412
0.4818613960470354,0.7007007007007006,0.4864864864864864,0.5780438460331025,0.5772188987913563,0.5650103772433158
0.7317988491368528,0.5760760760760759,0.7049549549549549,0.503829987617071,0.3106301341193296,0.7654289551249629
0.4555916937703279,0.9209209209209208,0.6669169169169169,0.466152746045311,0.5276069553691334,0.0
0.0,0.8753753753753752,0.0,0.4206603066082983,1.0,1.0
0.756567425569177,0.4839839839839839,0.761011011011011,0.5164972007604165,0.4932242705408375,0.873824929801001
0.6422316737553166,0.4399399399399398,0.7437437437437437,0.4828766764916197,0.5124980379161798,1.0
0.4828621466099576,0.7532532532532531,0.4839839839839839,4.5345937178475904e-05,0.3164291818546488,0.4840678793798071
0.3615211408556418,0.6361361361361361,0.3858858858858859,1.0,1.0,0.9096865898111166
0.6554916187140357,0.5267767767767767,0.6123623623623623,0.5733278685665452,0.8520013254966252,0.4095348553290197
0.4270703027270454,0.547047047047047,0.7397397397397396,0.6245879623977536,0.5295899680834365,0.5797059490381429
0.5206404803602703,0.5277777777777777,0.7527527527527527,0.5018016289655894,0.495100894710222,0.4997401328984774
0.6402301726294722,0.5245245245245245,0.8123123123123123,0.3134537907459407,0.9377208434344316,0.5185726494235834
0.6800100075056293,0.8408408408408408,0.0,0.9384847480684376,0.5575178331618327,0.5540541011912029
0.2454340755566675,0.5177677677677677,0.582082082082082,0.5844672724418787,0.0654830214346757,0.6612588729790536
0.0985739304478359,0.7610110110110109,0.6428928928928929,0.5962031497985594,0.563850567696252,0.6812511990512234
1.0000000000000002,1.0,0.0,0.7788269354866839,0.0477353192528385,0.3612954985436978
0.3607705779334502,0.6994494494494493,0.6784284284284283,0.4501892320839946,0.4301672567452081,0.9983675462615764
0.6454841130848138,0.5002502502502502,0.7467467467467467,0.5063641278755429,0.4842963531402061,0.9195161937317962
0.2804603452589443,0.5793293293293292,0.8158158158158157,0.3227165704518897,1.0,0.1896436855782479
0.5203902927195397,0.5275275275275274,0.7525025025025025,0.5018016289655894,0.4952229799257024,0.499694786961299
0.474355766825119,0.886136136136136,0.9637137137137136,0.0,0.8293091720878316,1.0
0.4360770577933451,0.6776776776776776,0.7092092092092092,0.0,0.2176779392015627,0.5376318956345815
0.5789342006504881,0.9824824824824824,0.8335835835835835,0.0,1.0,0.8393201597572248
0.5026269702276709,0.7129629629629628,0.4429429429429429,1.0,0.931480544848876,0.4293283569074071
0.182136602451839,1.0,0.0,0.4824197289708216,0.2315956537663289,0.0
0.9922441831373532,0.1641641641641641,0.7540040040040039,0.5169698449517763,0.4924150199696531,0.2240263704065437
0.9512134100575432,0.6136136136136136,0.8678678678678677,0.5979733854230252,0.3754887768805483,0.0
0.5203902927195397,0.5277777777777777,0.7527527527527527,0.5018155815616443,0.4951933306590858,0.499694786961299
0.4310733049787342,0.5833333333333333,0.7427427427427427,0.6412979402480075,0.3970211207422781,0.6992884176012
0.3375031273455092,0.4992492492492492,0.8303303303303302,0.4472138409752865,1.0,0.3270052496642657
0.5091318488866652,0.7367367367367366,0.7227227227227226,0.0,0.4739505031654952,0.5968746184837016
1.0000000000000002,0.4149149149149148,1.0,0.3720093482393568,0.4274046427263372,0.4976507316392556
0.9804853640230174,0.4647147147147146,0.7965465465465464,0.5140397997802466,0.4773078465912064,0.9720424856549872
0.5203902927195397,0.5275275275275274,0.752002002002002,0.5017859322950277,0.4952840225334426,0.4997261803024225
0.1423567675756819,0.96021021021021,0.3360860860860861,1.0,0.6037881298289063,0.0
0.3309982486865149,0.5375375375375374,0.7042042042042042,0.6307532657795141,0.2734255367389295,0.5260041508973263
0.5744308231173382,0.4311811811811811,0.7547547547547546,0.5017248896872875,0.4837783630116679,0.7599194237577829
0.4901175881911435,0.7272272272272271,0.4619619619619619,0.2594153862252996,0.4102516699513403,0.4736609867973559
0.4841130848136103,0.6874374374374373,0.4414414414414414,0.5126201231316602,0.5473237176692188,0.5002895163681392
1.0000000000000002,0.7655155155155153,1.0,1.0,0.0,0.8229450442122888
0.7325494120590444,0.4657157157157156,0.7424924924924925,0.4969321729424281,0.4883112126550046,0.6534314665922528
0.4823617713284965,0.5250250250250249,0.7432432432432432,0.0015871078012453,0.4409561016446622,0.4279854195371226
0.3257443082311735,0.5110110110110109,0.6624124124124124,0.5726407032108412,0.3048014371173936,0.4767724157175994
0.7373029772329248,0.9371871871871872,0.6766766766766766,0.6106545511624256,0.7296876362558209,1.0
0.6882661996497375,0.5723223223223222,0.7727727727727727,0.5354343617559342,0.546697594921255,1.0
0.4518388791593696,0.5583083083083082,0.8563563563563563,0.1262814587439175,0.6213527041875229,0.4629157437605734
0.4213159869902428,0.4944944944944944,0.6203703703703703,0.6198580323351414,0.0,0.81128590613391
0.5203902927195397,0.5277777777777777,0.7525025025025025,0.5018312782322061,0.4951462406474005,0.4997558295690392
0.482611958969227,0.7009509509509508,0.5142642642642642,0.7390271552400718,0.6168965938224881,0.556342326944207
0.5476607455591695,0.518018018018018,0.7630130130130129,0.4856549871810524,0.4568271796571149,0.4740568917104139
0.5208906680010009,0.5277777777777777,0.7522522522522521,0.5018766241693845,0.4951322880513455,0.4997558295690392
0.2344258193645235,0.537037037037037,0.7372372372372371,0.4785740446831888,0.4836562777961875,0.5492456877757818
0.5203902927195397,0.5277777777777777,0.7527527527527527,0.5018609274988227,0.4951165913807838,0.4996790902907372
0.5208906680010009,0.5275275275275274,0.7525025025025025,0.5018469749027679,0.4951619373179622,0.4997558295690392
0.5206404803602703,0.528028028028028,0.7527527527527527,0.5018609274988227,0.495100894710222,0.4997261803024225
0.5201401050788093,0.5277777777777777,0.7522522522522521,0.5018469749027679,0.4952229799257024,0.4996790902907372
0.5484113084813611,0.5863363363363362,0.7510010010010009,0.4803896262448331,0.4958491026736662,0.0
1.0000000000000002,0.7352352352352352,0.0,0.373367982280203,0.3747859148542826,0.0845893576573591
0.4565924443332501,0.7339839839839839,0.7667667667667667,0.2940422414845562,0.4612536407555331,0.0
0.5203902927195397,0.5275275275275274,0.7522522522522521,0.5018923208399463,0.4952840225334426,0.4997558295690392
0.231923942957218,0.8398398398398397,0.8033033033033032,0.6834940788670492,0.5798140816575684,1.0
0.2499374530898174,0.5748248248248247,0.6313813813813813,0.5702914348500968,1.0,0.2241781048886408
0.6184638478859146,0.598098098098098,0.7845345345345345,0.5364738301620245,0.523196190941277,1.0
0.9677257943457596,0.4734734734734734,0.7510010010010009,0.5169855416223381,0.4931946212742208,0.1499363412804994
0.521391043282462,0.5002502502502502,0.5653153153153153,0.5723668835132637,0.0,0.7947747527774387
0.5208906680010009,0.5272772772772771,0.7527527527527527,0.5018312782322061,0.4951619373179622,0.4997558295690392
0.1756317237928447,0.6476476476476476,0.0,0.7496939149240456,0.9161274569649616,0.8198632645586619
0.3087315486614962,0.6323823823823823,0.7479979979979979,0.5844219265047003,0.5356488829202783,0.9985053281476184
0.7590693019764825,0.356106106106106,0.7615115115115114,0.4950258995064269,0.4926748870711757,0.5576852643144915
0.4673505128846636,0.4694694694694694,0.7094594594594594,0.4928266215532728,0.0,0.9070931510194116
0.4513385038779085,0.6046046046046045,0.78003003003003,1.0,0.7178924603659068,0.5539163193051607
0.0,0.88013013013013,0.1243743743743743,0.0,0.6233985035840731,0.3809983082477283
0.5206404803602703,0.5275275275275274,0.752002002002002,0.5017702356244659,0.4952229799257024,0.4997558295690392
0.4996247185389043,0.8055555555555554,0.577077077077077,1.0,0.6050543279208888,0.6720180686118911
0.5206404803602703,0.5277777777777777,0.7527527527527527,0.5018312782322061,0.4952090273296475,0.4997104836318607
0.2329246935201401,0.7565065065065064,0.4632132132132132,0.4272215149031166,0.7415002528908035,0.0
0.5466599949962473,0.4942442442442442,0.6606606606606606,0.3285313148577707,0.0,0.7491148821877671
0.2626970227670754,0.5352852852852852,0.7882882882882882,0.5443326298899489,0.9764689467534052,0.2730278877513647
0.5654240680510384,0.4044044044044043,0.7625125125125125,0.4889355913284615,0.4841742679247257,0.0
0.5203902927195397,0.5277777777777777,0.752002002002002,0.5018155815616443,0.4952090273296475,0.4996337443535588
0.4185639229422068,0.5360360360360359,0.6709209209209209,0.58184244030905,0.5438739382946439,0.5685665451628094
0.7000250187640732,0.4827327327327326,0.7354854854854854,0.5155205190365733,0.497390864537733,0.8190854073286011
0.9799849887415564,0.427177177177177,0.7582582582582582,1.0,0.0,0.1775275999790711
0.0,0.8383383383383383,0.3395895895895896,0.0,0.0,0.1099220398695432
0.5048786589942458,0.4411911911911911,0.7114614614614614,0.5288435041944992,1.0,0.1473865043514659
0.5384038028521393,0.5675675675675674,0.7102102102102101,1.0,0.7532047369063606,0.4641069466487608
0.3249937453089818,0.609109109109109,0.783033033033033,0.5026405288033905,0.4753684357395747,0.3628669096743813
0.5276457343007257,0.4231731731731731,0.6118618618618619,0.6053595409595898,0.0,0.7565620803320717
0.5203902927195397,0.5272772772772771,0.7525025025025025,0.5017405863578492,0.4952090273296475,0.4998011755062176
0.5203902927195397,0.5277777777777777,0.7522522522522521,0.5019080175105081,0.4952090273296475,0.4997261803024225
0.5841881411058295,0.6146146146146145,0.756006006006006,0.4659068315398433,0.4375848056228962,0.0
0.4993745308981737,0.627127127127127,0.6879379379379379,1.0,0.5497497253082652,0.5388074018522071
0.5206404803602703,0.5275275275275274,0.7527527527527527,0.5018312782322061,0.4951165913807838,0.4997401328984774
0.0,0.9306806806806804,0.271021021021021,0.0,0.0,0.2261018190697107
0.993495121341006,1.0,0.4812312312312312,1.0,0.9171355320299284,0.0
0.0,0.8673673673673672,0.9569569569569568,0.8348187034550116,1.0,0.9997104836318608
0.6354766074555919,0.6098598598598598,0.4376876876876877,0.3912831156146991,0.2166855608071577,0.6136002930045171
0.5203902927195397,0.5275275275275274,0.752002002002002,0.5017702356244659,0.495177633988524,0.4997104836318607
0.5344008006004505,0.6621621621621621,0.3215715715715715,1.0,0.6265570225160019,0.5535500636587195
0.3037277958468852,0.5222722722722721,0.7577577577577577,0.4395521216666376,0.9985803233514134,0.3518949369517066
0.4713535151363524,0.7527527527527527,0.4664664664664664,0.9438564975495752,0.4692798716361163,0.5474144095435757
0.4288216162121592,0.5505505505505505,0.549049049049049,0.6432966496328723,0.0,0.969067094546279
0.2879659744808607,0.5302802802802802,0.5873373373373373,0.6853707030364338,0.0204492735929679,0.6745365121998012
0.4668501376032025,0.7144644644644643,0.4859859859859859,0.2429652754765683,0.4244135549470673,0.5590578509513926
0.5611708781586191,0.5107607607607607,0.856106106106106,0.4964891780176849,0.9773688891989464,0.3162774473725518
0.0347760820615462,0.6296296296296295,0.3741241241241241,0.0,0.0,0.0
0.5206404803602703,0.5275275275275274,0.7527527527527527,0.5018923208399463,0.4951933306590858,0.499694786961299
0.5203902927195397,0.5275275275275274,0.7527527527527527,0.5018766241693845,0.4952090273296475,0.4997104836318607
0.99524643482612,1.0,0.6216216216216216,1.0,0.0,0.0
0.5141356017012761,0.5260260260260259,0.7537537537537538,0.0005493834696618,0.4491968536895896,0.3942288574567905
0.5018764073054792,0.5553053053053052,0.7745245245245245,0.5679107731482289,0.5929678915883286,0.5016777996756021
0.806354766074556,0.2299799799799799,0.7585085085085085,0.5176413136369186,0.482465074908,0.7296422903186424
0.5206404803602703,0.5275275275275274,0.7522522522522521,0.5018609274988227,0.4952229799257024,0.4996337443535588
0.5901926444833626,0.6206206206206205,0.6936936936936937,0.5824389137903971,0.9921708495386924,0.4994802657969548
0.4806104578433827,0.6536536536536536,0.7179679679679679,1.0,0.718181976734046,0.44777892111551
0.4100575431573681,0.5187687687687687,0.6956956956956957,0.1170954183162705,0.3047246978390917,0.3221514903116661
0.3790342757067802,0.6506506506506505,0.7274774774774775,0.5653312869525786,0.579004831086384,0.989211155100546
0.5096322241681263,0.7845345345345344,0.6241241241241241,1.0,0.6923452569893785,0.440132898477423
0.5131348511383539,0.7384884884884884,0.6534034034034033,1.0,0.7239653277988035,0.5223869403700926
0.2967225419064299,0.5783283283283283,0.9754754754754754,0.5665050490956973,0.7849311962607042,0.3286377034026894
0.4448336252189143,0.4499499499499498,0.8508508508508508,0.2711355669114185,1.0,0.2438809145926714
0.5048786589942458,0.6834334334334333,0.6068568568568569,1.0,0.6506078099656417,0.4863561051328112
0.5203902927195397,0.5277777777777777,0.7527527527527527,0.5018469749027679,0.4952090273296475,0.4997558295690392
0.4803602702026521,0.7244744744744743,0.7174674674674675,1.0,0.7774072588380976,0.408818040706699
0.5951963972979737,0.5307807807807807,0.7815315315315314,0.5167256745208155,0.5317875019620838,1.0
0.0,1.0,0.0,0.0,0.2847934143746621,0.8008179709437186
0.4440830622967227,0.7805305305305305,0.0,1.0,0.0,0.840602054519769
0.5899424568426321,0.4264264264264263,1.0,0.2051328112736976,0.6441669428117969,0.6083192353977362
0.6114585939454592,0.5165165165165164,0.7745245245245245,0.5078587997279244,0.5155501683031899,1.0
1.0000000000000002,1.0,0.0135135135135135,1.0,0.0,0.0
0.6047035276457344,0.5140140140140139,0.6591591591591591,0.4491515077524112,0.7386469469975757,0.5748382370894884
0.5196397297973482,0.548048048048048,0.7867867867867867,6.104260774025816e-05,0.4268256099900588,0.4358895652022254
0.5203902927195397,0.5275275275275274,0.7525025025025025,0.5018609274988227,0.495254373266826,0.499694786961299
0.5206404803602703,0.5277777777777777,0.7530030030030029,0.5018016289655894,0.4952386765962642,0.4997558295690392
0.4908681511133351,0.6826826826826826,0.5665665665665666,0.0,0.3236479062385545,0.4169506601322008
0.5098824118088567,0.5057557557557557,0.6456456456456456,0.3840643912307934,0.0,0.8039625372795925
0.4578433825369028,0.7384884884884884,0.552052052052052,0.0,1.0,0.7177843277464813
0.3252439329497124,0.6904404404404403,0.793043043043043,0.5812320142316479,0.472820342885048,0.4267174773706332
0.5126344758568928,0.6413913913913912,0.4119119119119119,0.5879780944241938,0.5289184993982943,0.5614402567277674
0.5201401050788093,0.5275275275275274,0.7522522522522521,0.5018312782322061,0.4952386765962642,0.499694786961299
0.516387290467851,0.4907407407407406,0.8305805805805806,0.4145246524931545,1.0,0.3437309241850812
0.4150612959719791,0.563063063063063,0.7510010010010009,0.5994384080087901,0.0,0.9104347977745608
0.6399799849887418,0.4907407407407406,0.8058058058058057,0.3813488672236078,0.9991750527582538,0.4010342361825697
0.6252189141856394,0.2545045045045044,0.3255755755755756,0.3833772258750894,0.976803809058723,0.8784188220520781
0.5206404803602703,0.5275275275275274,0.7530030030030029,0.5017859322950277,0.4951933306590858,0.4997104836318607
0.0635476607455592,1.0,0.0,0.3775485288731535,0.526720965519647,0.0
0.9919939954966226,0.9164164164164164,0.0,1.0,0.0,0.893267872403509
0.4265699274455843,0.5107607607607607,0.7635135135135135,0.3214503723599072,1.0,0.2141060746115074
0.5203902927195397,0.5275275275275274,0.7527527527527527,0.5018609274988227,0.4952229799257024,0.4997261803024225
0.4893670252689518,0.609109109109109,0.7367367367367367,0.4099011109754609,0.348110295271814,0.0
0.6842631973980486,0.62012012012012,0.5565565565565566,0.5450337478417078,0.1155536564522036,0.6564975495753178
0.5198899174380787,0.5275275275275274,0.7530030030030029,0.5018766241693845,0.495100894710222,0.4997104836318607
0.4098073555166376,0.6549049049049048,0.7512512512512513,0.4212393393445768,0.4603676509060467,0.0008859898494863
0.5316487365524144,0.7234734734734733,0.4952452452452452,1.0,0.7826272738371383,0.4316776252681514
0.5098824118088567,0.4909909909909909,0.7297297297297297,0.3201231316601846,1.0,0.1105324659469452
0.7210407805854393,0.5392892892892892,0.7530030030030029,0.4703175959676997,0.4842510072030277,1.0
0.5969477107830875,0.4026526526526526,1.0,0.268481085511973,0.9316008859898496,0.0
0.7945959469602204,0.5327827827827827,1.0,0.9953921551528682,0.0267820081273872,0.5210596996703699
0.3495121341005756,0.6986986986986986,0.0,0.5777368889198946,0.5430036451157193,0.6236566266110888
0.5206404803602703,0.5277777777777777,0.7527527527527527,0.5018312782322061,0.4951933306590858,0.4997261803024225
0.5153865399049289,0.6744244244244243,0.4674674674674675,0.0813540994471284,0.4365156879501892,0.4852119922563092
0.7455591693770329,0.5783283283283283,0.6033533533533533,0.59991105220015,0.8586706664108691,0.5706419938259762
0.3057292969727296,0.6519019019019018,0.7845345345345345,0.4958177093325427,0.463709297661196,0.0296510106911767
0.4558418814110584,0.6916916916916915,0.6906906906906907,0.4305945549993896,0.4455813872368627,0.0
0.4763572679509633,0.7867867867867866,0.814064064064064,0.0,0.3671102429495788,0.5192737673753423
0.8543907930948214,0.3113113113113112,0.7740240240240239,0.4917139020178942,0.4618937160995517,0.8324990843608839
0.5794345759319491,0.6418918918918918,0.7484984984984985,0.4628407485567783,0.3433803652092017,0.0
0.3517638228671504,0.5550550550550549,0.7012012012012012,0.4245513368331095,0.348110295271814,0.5362279156565568
0.5201401050788093,0.5275275275275274,0.7530030030030029,0.5019080175105081,0.495177633988524,0.4997104836318607
0.5076307230422819,0.5698198198198198,0.8213213213213213,0.9935137869089768,0.5542668782810402,0.5287667649161972
0.2544408306229673,0.6128628628628627,0.9416916916916916,0.6266634110609205,0.6345065141182831,0.3315067059664789
0.2742056542406806,0.302052052052052,0.6458958958958958,0.6352407694856724,0.0,0.245666846887699
0.3690267700775582,0.6306306306306305,0.8901401401401401,0.4377365401049933,0.7846120306259483,0.3762823307811709
0.4928696522391795,0.618118118118118,0.6846846846846846,1.0,0.5747318485445698,0.4965362680293702
0.263447585689267,0.6819319319319318,0.854104104104104,0.6196435111707972,0.7839091685996826,0.2832376999145404
0.6654991243432576,0.4356856856856856,1.0,0.9999389573922596,0.2422624134503026,0.5107731482288923
0.5208906680010009,0.5275275275275274,0.7522522522522521,0.5018469749027679,0.4951619373179622,0.4997261803024225
0.4625969477107832,0.7342342342342341,0.5405405405405406,0.5010534210021452,0.5558696827528472,0.4850899070408287
0.4320740555416563,0.5100100100100099,0.7972972972972973,0.4075361459441547,1.0,0.297200760416485
0.5266449837378034,0.5760760760760759,0.7022022022022022,1.0,0.7980396602542861,0.4531192772555243
0.4498373780335252,0.5833333333333333,0.6881881881881882,0.6946491794129445,0.0206777473533669,0.6549261384446343
0.5201401050788093,0.5272772772772771,0.7525025025025025,0.5019533634476865,0.4952386765962642,0.4997401328984774
0.7012759569677259,0.8428428428428427,0.8153153153153152,0.0,0.4835184959101453,0.6746429007447198
0.5276457343007257,0.5487987987987987,0.6841841841841841,0.632751975164379,0.0,0.9949788094947416
0.5203902927195397,0.5275275275275274,0.7525025025025025,0.5018155815616443,0.4952386765962642,0.4996790902907372
0.3279959969977484,0.538038038038038,0.7767767767767767,0.568214242112423,0.4851962955857474,0.4880199522123585
0.6712534400800603,0.4747247247247246,0.7394894894894894,0.4916214660690304,0.4561417583759178,0.7289411723668835
0.5919439579684765,0.7905405405405403,0.2277277277277277,1.0,1.0,0.588878036869735
0.5721791343507632,0.6023523523523522,0.7392392392392392,0.5286446797007168,0.5165721959642116,1.0
0.4846134600950714,0.4974974974974974,0.5853353353353353,0.4783455709227898,0.0,0.7115440291609257
0.7015261446084565,0.933933933933934,0.0217717717717718,0.0,0.8807070478050822,0.0
0.5654240680510384,0.6674174174174173,0.7172172172172171,0.4804977588642586,0.5080262308805832,0.0
0.2051538653990494,1.0,0.7432432432432432,0.7688473411584142,1.0,1.0
0.490367775831874,0.6669169169169168,0.6829329329329329,0.0,0.457360866456215,0.5224340303817779
0.5096322241681263,0.7592592592592591,0.6106106106106106,1.0,0.6607094895093919,0.4388353070443169
0.6572429321991495,0.5275275275275274,0.6754254254254254,0.4947660324049043,0.998779147845196,0.4699216910546419
0.513635226419815,0.6554054054054053,0.4261761761761762,0.389833789699496,0.4828313305544413,0.4643197237385981
0.4951213410057544,0.6006006006006005,0.6263763763763763,0.5349477649685195,0.0,0.790913371819244
0.505879409557168,0.7870370370370369,0.5382882882882882,0.0033573434257112,0.4396131642743778,0.63252350140398
0.4966224668501377,0.6944444444444443,0.4199199199199199,0.5078901930690479,0.5004726441913598,0.5774473725517554
0.4976232174130599,0.6726726726726726,0.4179179179179179,0.8135601792908593,0.673711564958055,0.5700158710780124
0.4886164623467602,0.6751751751751751,0.4091591591591591,0.6066100423810106,0.5196243263512217,0.5961264105202574
0.5203902927195397,0.5275275275275274,0.7527527527527527,0.5018155815616443,0.495254373266826,0.4997104836318607
0.5884413309982488,0.6794294294294293,0.3713713713713713,1.0,0.8378708338420218,0.4650522350314805
0.1926444833625219,0.6356356356356355,0.8025525525525525,0.4377208434344315,1.0,0.156483596979263
0.7182887165374032,0.6383883883883883,0.9829829829829828,0.0,0.7562725639639325,0.979322252646633
0.3587690768076058,0.5795795795795795,0.7357357357357357,0.5488794321293405,0.5177477021818372,0.5166035893053351
0.0012509382036527,0.3078078078078077,1.0,0.2408287842056612,1.0,0.546087168843853
0.6925193895421567,0.5745745745745745,0.7382382382382382,0.492186546209254,0.5085459650836284,0.0
0.5203902927195397,0.5275275275275274,0.7527527527527527,0.5017405863578492,0.4951462406474005,0.4996337443535588
0.3722792094070554,0.6003503503503502,0.9474474474474474,0.4759649092209219,0.6864694699757574,0.4415665277220643
1.0000000000000002,0.4159159159159158,1.0,1.0,0.0,0.4044840155571446
0.5201401050788093,0.5275275275275274,0.752002002002002,0.5019080175105081,0.4952386765962642,0.4997261803024225
0.5203902927195397,0.5275275275275274,0.7522522522522521,0.5018016289655894,0.4952229799257024,0.4997261803024225
0.6092069051788843,0.5663163163163162,0.0958458458458458,0.2512670701292359,1.0,1.0
0.0,0.6338838838838838,1.0,0.9872420949822976,0.8469208364581334,0.9846626087866474
0.5203902927195397,0.5275275275275274,0.7522522522522521,0.5018312782322061,0.4951619373179622,0.4997558295690392
0.503127345509132,0.5653153153153152,0.7212212212212212,0.5269651359506078,0.5002895163681392,0.037968502014406
0.5496622466850138,0.4757257257257256,0.5845845845845845,0.4342257181226782,0.0,0.7256291748783508
0.4851138353765325,0.5995995995995995,0.7322322322322322,1.0,0.6110661527460453,0.4020109179064129
0.7420565424068053,0.6436436436436435,0.5658158158158157,0.5949212550360151,0.2703734063519193,0.6857823046200534
0.5206404803602703,0.5272772772772771,0.752002002002002,0.5019080175105081,0.4951933306590858,0.4997261803024225
0.5128846634976234,0.4654654654654653,0.6256256256256256,0.5347785897413537,0.0,0.8914365941713029
0.8243682762071556,0.3758758758758758,0.7717717717717717,0.5162983762666341,0.485684636447669,0.0293771909935992
0.1448586439829873,0.7632632632632631,0.7377377377377377,0.593548668399114,0.4983518495910145,1.0
0.5669251938954217,0.4932432432432431,0.835085085085085,0.3926103563144217,0.9999703507333833,0.4216212916615798
0.4100575431573681,0.5377877877877877,0.8275775775775776,0.3276767183494078,0.9876850899070408,0.3111498683223747
0.675256442331749,0.5993493493493492,0.6964464464464464,0.6477684566684688,0.0,0.622420077785723
0.6024518388791595,0.6416416416416415,0.7167167167167167,0.0,0.937903971257652,1.0
0.3890417813360021,0.6911911911911911,0.1704204204204204,0.6815703646859794,0.9978024661213528,0.0
0.4676007005253941,0.7329829829829828,0.4964964964964964,0.0,0.2320229520205103,0.4148002162652389
0.5183887915936954,0.6976976976976976,0.4869869869869869,0.3284545755794688,0.4800547639395155,0.5051572283167937
0.435576682511884,0.6764264264264264,0.7775275275275275,0.3436541849067792,0.3307898913441582,0.0
0.5203902927195397,0.5275275275275274,0.7527527527527527,0.5018312782322061,0.4952229799257024,0.4997558295690392
0.4413309982486866,0.6536536536536536,0.7677677677677677,1.0,0.9914086889791932,0.3403892774299318
0.5431573680260197,0.4889889889889889,0.6626626626626626,0.4058426495979908,0.0,0.8095156705094442
0.9039279459594698,0.1378878878878878,0.7379879879879879,0.5011755062176256,0.4960775764340652,0.2933550761288522
0.5203902927195397,0.5272772772772771,0.7527527527527527,0.5018766241693845,0.495177633988524,0.4998011755062176
0.5211408556417314,0.6539039039039038,0.724974974974975,1.0,0.6992727209306382,0.4852433855974327
0.4928696522391795,0.5197697697697696,0.785035035035035,0.0301707448942218,0.517763398852399,0.4220782391823778
1.0000000000000002,0.082082082082082,0.7790290290290289,0.5479184470760591,0.5085773584247519,0.0760433925737307
0.5206404803602703,0.5277777777777777,0.7522522522522521,0.5018609274988227,0.4951619373179622,0.4997715262396009
0.5576682511883915,0.7910410410410409,0.4872372372372372,0.0,0.2754085494532327,0.6226502956206289
0.503127345509132,0.4391891891891891,0.7224724724724725,0.5182360430437588,0.4510891745295359,0.5014039799780247
0.5273955466599951,0.5578078078078077,0.5132632632632632,0.0,0.3844166942811797,0.4047735319252838
0.5201401050788093,0.5275275275275274,0.752002002002002,0.5018312782322061,0.4952683258628809,0.4997401328984774
0.9419564673505132,0.3468468468468467,0.7827827827827827,0.909871461708844,0.0,0.476116643703019
0.4530898173630224,0.5500500500500499,0.8265765765765765,0.245909273244153,0.5538709733679823,0.398180930289342
0.5021265949462098,0.7382382382382381,0.4199199199199199,0.0,0.2104906081587805,0.7089488462947138
0.5201401050788093,0.5275275275275274,0.752002002002002,0.5018016289655894,0.4951462406474005,0.4997104836318607
0.2364273204903678,0.6704204204204203,0.744994994994995,0.4725761724540872,0.4829080698327432,0.4018120934126306
0.4856142106579936,0.8523523523523522,0.6273773773773773,0.3731691577864206,0.6291818546488306,0.5527565097580969
0.3802852139104329,0.4744744744744744,0.6333833833833833,0.6100598217555854,0.2830545720913198,0.6974117934318154
0.6269702276707532,0.5850850850850849,0.524024024024024,0.4931946212742208,0.7998569858904372,0.6119067966583532
0.394045534150613,0.5295295295295295,0.7780280280280281,0.7068733976315468,0.6184680049531716,0.522585764863875
0.5008756567425571,0.699199199199199,0.592092092092092,1.0,0.6128224357744563,0.4725465231874706
0.5206404803602703,0.5275275275275274,0.7525025025025025,0.5018469749027679,0.4951619373179622,0.499694786961299
0.5133850387790845,0.7352352352352352,0.5422922922922923,0.8523832778136282,0.5915028690025638,0.5567539285278267
0.9342006504878662,0.2882882882882882,0.7782782782782782,0.5136438948671888,0.4429548110295271,0.4993285313148577
0.3982987240430324,0.6336336336336336,0.7822822822822822,0.5310549906692014,0.4945829045816837,0.0053264035439594
0.4858643982987242,0.6451451451451451,0.7124624624624624,1.0,0.6608926173326124,0.5162530303294557
0.6227170377783339,0.5475475475475474,0.3428428428428428,0.9473202295202052,0.8041596176988681,0.5183284789926226
0.6690017513134853,0.4899899899899899,0.7337337337337337,0.5118876118387777,0.5054031428222614,1.0
0.8173630222667002,0.9166666666666664,0.6278778778778779,1.0,0.0,0.9478992622564836
0.6667500625469104,0.5668168168168167,0.6141141141141141,0.4827092453389608,0.5092470830353872,0.5521914296178733
0.9974981235926949,1.0,0.0,0.0,1.0,0.5146345291870869
0.5091318488866652,0.5260260260260259,0.6974474474474475,0.4948881176203847,0.4131067199190749,0.4758724732720581
0.5686765073805355,0.6686686686686686,0.6626626626626626,0.0,0.3341925807070478,0.5672846504002651
0.5203902927195397,0.5275275275275274,0.7525025025025025,0.5018312782322061,0.4952386765962642,0.4997401328984774
0.4821115836877659,0.7077077077077076,0.4444444444444444,0.5047770200742976,0.5137188900709838,0.5739382946439472
0.5206404803602703,0.528028028028028,0.7530030030030029,0.5017405863578492,0.4952090273296475,0.4997715262396009
0.4225669251938955,0.4714714714714714,0.6796796796796796,0.6326002406822819,0.0,0.8151472870921046
0.5203902927195397,0.5275275275275274,0.7525025025025025,0.5018016289655894,0.4951619373179622,0.499694786961299
0.6254691018263699,0.5495495495495495,0.5222722722722722,0.4526466330641645,0.0,0.6286464237752236
0.5201401050788093,0.5277777777777777,0.7527527527527527,0.5018469749027679,0.4952386765962642,0.4997261803024225
0.4973730297723294,0.7409909909909909,0.4914914914914914,1.0,0.6546662713431117,0.4883112126550046
1.0000000000000002,0.5625625625625624,0.952202202202202,0.583216771020458,0.8505990895931074,0.3764497619338298
0.6812609457092821,0.4289289289289288,0.7630130130130129,0.5017248896872875,0.5122381708146572,0.9974815564120898
0.2877157868401302,0.6736736736736736,0.7352352352352352,0.5367319531890402,0.4863107591956328,0.6854927882519141
0.5056292219164374,0.5613113113113112,0.6081081081081081,0.5760137433071141,0.0,0.7366168442715872
0.5356517388041032,0.6619119119119118,0.4099099099099099,0.040959589793676,0.4417496555452849,0.5519769084535291
0.6407305479109333,0.523023023023023,0.0127627627627628,0.8773810977204946,0.2657027748225404,0.7468266564347629
0.9849887415561672,0.978228228228228,0.0,1.0,0.0,0.0
0.4663497623217414,0.5135135135135134,0.8113113113113113,0.0465144670980344,0.5257599804663655,0.4737359820011511
0.7830873154866151,0.2667667667667667,0.2692692692692693,0.5439663742435077,0.8790292481294801,0.183279557702705
0.4908681511133351,0.5332832832832832,0.7137137137137137,0.4288243193749237,0.3449203829987617,0.0
0.5203902927195397,0.5275275275275274,0.7525025025025025,0.5018312782322061,0.4951619373179622,0.4997104836318607
0.6562421816362274,0.5978478478478477,0.5137637637637638,0.4824040323002598,0.3172837783630117,0.7039730017266337
0.4803602702026521,0.7394894894894893,0.5322822822822822,0.9828470272250032,0.6506235066362035,0.699197725726843
0.7865899424568428,0.8633633633633633,0.757007007007007,0.432242705408375,0.3984407973908645,0.0
0.5759319489617214,0.5115115115115114,0.7905405405405405,0.5279575143450128,0.5564644121596874,1.0
0.5206404803602703,0.5277777777777777,0.7525025025025025,0.5018312782322061,0.495254373266826,0.4998482655179029
0.3667750813109833,0.5798298298298298,0.7497497497497497,0.4478853096604287,0.417775607373947,0.0
0.3134851138353766,0.5142642642642642,0.7565065065065064,0.5118422659015993,0.5096604286935138,0.5718314526396567
0.4906179634726046,0.6296296296296295,0.4086586586586586,1.0,0.8693234734987878,0.509721471301254
0.4105579184388293,0.6186186186186186,0.7222222222222222,0.624176360814134,0.6788094947416153,1.0
0.5303977983487617,0.3931431431431431,1.0,0.5945846486561905,0.0,0.998306503653836
0.531898924193145,0.5037537537537536,0.7272272272272272,0.8275703298044892,0.4739348064949334,0.4904320072553499
0.9482111583687768,0.1063563563563563,0.7612612612612613,0.5169384516106528,0.498078029893437,0.3222125329194063
0.2274205654240681,0.578078078078078,0.836086086086086,0.5947834731499729,0.7703734063519194,0.3079599560493224
1.0000000000000002,1.0,0.0,0.9957270174581858,0.0023039224235659,0.5322461935573888
0.5201401050788093,0.5277777777777777,0.7530030030030029,0.5018312782322061,0.4951462406474005,0.4997854788356559
1.0000000000000002,0.29004004004004,0.7747747747747746,0.5535954095958979,0.5458883443500706,0.0
0.3947960970728047,0.4762262262262261,0.8628628628628627,0.3069065350471772,1.0,0.1169262430891047
0.5203902927195397,0.5275275275275274,0.7525025025025025,0.5018766241693845,0.4951322880513455,0.4997558295690392
0.0,0.3698698698698698,0.0,0.90553743655929,0.7761724540872386,0.1640982262762265
0.5201401050788093,0.5275275275275274,0.7517517517517517,0.5018016289655894,0.4953154158745662,0.4996651376946823
0.3062296722541907,1.0,0.516016016016016,0.0,0.7341437466208556,0.8088598984948637
0.4993745308981737,0.7134634634634633,0.4534534534534534,0.0596839736993564,0.3805849625896018,0.5171372761044352
0.1913935451588692,0.9086586586586584,0.0,0.7524722256134782,0.4945672079111219,0.0
0.3700275206404805,0.5828328328328327,0.8488488488488488,0.5587543819871985,0.9032474667317788,0.3593578317665731
0.5201401050788093,0.5272772772772771,0.7522522522522521,0.5018155815616443,0.4952229799257024,0.4997401328984774
0.6915186389792346,0.5568068068068067,0.6834334334334333,0.5714965903343391,0.0,0.914325827999372
0.0,0.7707707707707707,0.3340840840840841,0.0,0.0,0.0
0.5959469602201652,0.7124624624624624,1.0,0.412799762805867,0.6617315171704135,0.6447320229520205
0.6634976232174132,0.6844344344344343,0.762012012012012,0.4672654655806896,0.5029457418420915,1.0
0.5203902927195397,0.5275275275275274,0.752002002002002,0.5018155815616443,0.4952090273296475,0.4997558295690392
0.5203902927195397,0.5275275275275274,0.7522522522522521,0.5018609274988227,0.4952229799257024,0.4997401328984774
0.7282962221666252,0.5803303303303302,0.745995995995996,0.4847096987983326,0.495406107748923,1.0
0.8553915436577435,0.9194194194194192,0.001001001001001,0.0003819523170029,0.7985890437239478,1.0
0.8518889166875159,0.341091091091091,0.7540040040040039,0.4961229223712437,0.4658771822732267,0.2354570347245234
0.5166374781085816,0.512012012012012,0.7357357357357357,0.0461482114515932,0.4068036346512723,0.4783752201894065
0.6602451838879161,0.6934434434434433,0.783033033033033,0.0,0.9981076791600536,1.0
0.5206404803602703,0.5275275275275274,0.7522522522522521,0.5017545389539041,0.4952386765962642,0.4998011755062176
0.5206404803602703,0.5277777777777777,0.7527527527527527,0.5018609274988227,0.4951322880513455,0.4997401328984774
0.5203902927195397,0.5275275275275274,0.7527527527527527,0.5018155815616443,0.495177633988524,0.499694786961299
0.9904928696522394,0.5818318318318317,1.0,0.0,1.0,0.7867328252262937
0.3932949712284214,0.5675675675675674,0.7354854854854854,0.4163559307253606,0.3657219596421159,0.0
0.7928446334751065,0.5415415415415414,0.6539039039039038,0.5342902488794321,1.0,1.0
0.2824618463847886,0.5908408408408408,0.7322322322322322,0.5500392416764044,0.5955316811134171,0.4588258890419798
0.4513385038779085,0.637137137137137,0.6211211211211211,0.0,0.2183040619495265,0.3248530617227968
0.5203902927195397,0.5272772772772771,0.7525025025025025,0.5018155815616443,0.495177633988524,0.4997558295690392
0.5899424568426321,0.3676176176176176,0.2494994994994995,0.541416537314474,1.0,1.0
0.3199899924943709,0.5072572572572571,0.8751251251251251,0.5245391283115615,0.9236967403247468,0.2817412839876519
0.6159619714786091,0.581081081081081,0.7452452452452452,0.4655719692345257,0.421759073547622,0.0
0.5206404803602703,0.5275275275275274,0.7525025025025025,0.5018469749027679,0.4952229799257024,0.4996790902907372
0.8176132099074307,0.7492492492492491,1.0,0.0,0.96392381882554,0.8083872543035038
0.5624218163622718,0.7740240240240239,0.0,0.8209777281685473,0.5827127334879746,0.5294992762090797
0.2692019014260696,0.6276276276276276,0.7279779779779779,0.570962903535239,0.5580358232903709,0.8207946003453268
0.0002501876407305,0.6801801801801801,0.775025025025025,0.4621082372638959,0.5065769049653801,0.7444302980623332
0.5203902927195397,0.5272772772772771,0.7525025025025025,0.5018469749027679,0.4951165913807838,0.499694786961299
0.7393044783587692,0.603103103103103,0.7602602602602602,0.5000156966705618,0.5375098104191011,1.0
0.4843632724543409,0.4772272272272271,0.68993993993994,0.136276749742749,0.3950677572945916,0.4337687706018801
0.9777332999749816,0.7107107107107106,0.6989489489489489,0.3321642220555662,0.4802989343704763,0.0
0.1330998248686515,0.807057057057057,0.0,1.0,0.584055670858259,0.3270052496642657
0.4555916937703279,0.7299799799799799,0.775025025025025,0.4118701710937091,0.5310410380731465,0.0
0.5201401050788093,0.5277777777777777,0.7530030030030029,0.5017405863578492,0.4951619373179622,0.4997104836318607
0.6332249186890169,0.5738238238238237,0.7607607607607607,0.5169244990145979,0.5466662015801315,1.0
0.7072804603452592,0.5873373373373372,0.6123623623623623,0.657550970577463,0.4893785862532047,0.5902820168477597
0.6582436827620717,0.4214214214214213,0.7417417417417417,0.5190452936149432,0.4761776863107592,1.0
1.0000000000000002,1.0,0.0,0.0,1.0,0.1807314648481783
0.4906179634726046,0.7317317317317316,0.6554054054054054,1.0,0.5949369517065769,0.3930830005057816
0.0,0.872122122122122,1.0,0.9999843033294382,1.0,1.0
0.380785589191894,0.5175175175175174,0.6726726726726726,0.6691490660481015,0.0098889024539128,0.7200882501700472
0.5201401050788093,0.5277777777777777,0.7530030030030029,0.5018923208399463,0.4952090273296475,0.4997558295690392
0.5641731298473857,0.5145145145145145,0.7590090090090089,0.537586549697403,0.51454383731273,1.0
0.4448336252189143,0.5437937937937937,0.7837837837837838,0.4553935504124736,0.9037358075937004,0.306540279400736
0.1676257192894671,0.342092092092092,0.4181681681681681,0.3102795751434501,0.7252472225613478,0.412571289045468
0.4716037027770829,0.5060060060060059,0.7222222222222222,0.3512705582782496,0.908818040706699,0.233044979681532
0.7262947210407807,0.3158158158158157,0.914164164164164,0.0621867206167047,1.0,0.8269738563231421
0.0242682011508632,0.9897397397397396,0.5325325325325325,0.0,0.4094424193801559,0.9933620524268796
0.5499124343257444,0.5578078078078077,0.772022022022022,1.0,0.643312346303434,0.443566981181436
0.2849637227920941,0.5613113113113112,0.8430930930930931,0.6138601601060397,0.9472277935713412,0.3002982367406736
1.0000000000000002,0.31006006006006,0.7782782782782782,0.4635872124457156,0.468456668468877,4.5345937178475904e-05
0.2797097823367527,0.523023023023023,0.0,0.6161640825296056,0.5817813977013098,0.0
0.5534150612959721,0.6621621621621621,0.7967967967967968,0.0,0.0008249472417461,0.6688142037427839
0.4210657993495122,0.4972472472472471,0.7662662662662663,0.6471283813244502,0.1106545511624256,0.8262273924342047
0.7030272704528397,0.5255255255255254,0.7452452452452452,0.5092331304393324,0.5040741580480318,1.0
0.6775081310983239,0.5377877877877877,0.6921921921921921,0.4989779723389783,0.9905226991297068,0.3462179744318677
0.4573430072554417,0.5718218218218217,0.816066066066066,0.5354814517676195,0.8185813697961177,0.244597729214992
0.3957968476357269,0.5242742742742742,0.6984484484484484,0.5992866735266931,0.0037235990721523,0.7884420182430193
0.5206404803602703,0.5275275275275274,0.7530030030030029,0.5019080175105081,0.4951933306590858,0.4997715262396009
0.4633475106329748,0.7707707707707707,0.7897897897897898,0.0,0.3884751556586497,0.3972338978321154
0.4168126094570929,0.5768268268268267,0.6971971971971972,0.5249978199068664,0.5300940056159199,0.6645708704675863
0.93144858643983,0.4522022022022021,0.8683683683683683,1.0,0.0,0.2882885396864154
0.2837127845884414,0.6156156156156155,0.7119619619619619,0.4702112074227811,0.4794129445209899,0.9014772311073128
0.8911683762822118,0.9502002002002,0.0,0.741454906953625,0.3631581701170274,0.1991663323857195
0.5201401050788093,0.5275275275275274,0.7525025025025025,0.5018016289655894,0.4952840225334426,0.499694786961299
0.5203902927195397,0.5275275275275274,0.752002002002002,0.5017702356244659,0.4952229799257024,0.4996651376946823
0.3867900925694272,0.4702202202202201,0.8498498498498498,0.4778572300608682,1.0,0.1615030434100144
0.4808606454841132,0.6889389389389389,0.7007007007007007,0.628234822191604,0.5661858834609415,1.0
0.5243932949712286,0.5325325325325324,0.8145645645645645,0.2881525018748801,0.389757050421194,0.4979245513368331
0.5203902927195397,0.5272772772772771,0.7530030030030029,0.5018312782322061,0.4952090273296475,0.4997104836318607
0.5161371028271204,0.4476976976976976,0.7727727727727727,0.750107260582172,0.5726093098697176,0.4837626663411061
0.5201401050788093,0.5277777777777777,0.7527527527527527,0.5018312782322061,0.4952090273296475,0.4997261803024225
0.5203902927195397,0.5272772772772771,0.7522522522522521,0.5018923208399463,0.4951619373179622,0.4997854788356559
0.4130597948461347,0.59009009009009,0.7389889889889889,0.4655266232973473,0.4713099743621047,0.2373790048310863
0.4633475106329748,0.6238738738738737,0.7487487487487487,1.0,0.7272616286167746,0.5154280830877095
0.5949462096572431,0.5412912912912912,0.7034534534534533,0.4237420862619251,0.8806773985384655,0.4679369342658318
0.5203902927195397,0.5275275275275274,0.7522522522522521,0.5018609274988227,0.4952386765962642,0.4996651376946823
0.735551663747811,0.5307807807807807,0.7640140140140139,0.5263093639360273,0.5171826220416136,1.0
0.3930447835876909,0.5225225225225224,0.8878878878878878,0.5715872822086959,0.460109527879031,0.5721523623489195
0.6269702276707532,0.6536536536536536,0.6676676676676676,0.3426931998534978,0.0298044892477806,0.7794687549052095
0.5376532399299476,0.4949949949949949,0.6811811811811811,0.5295289254756963,0.4465266756195825,0.4664265657428885
0.4856142106579936,0.6896896896896896,0.5177677677677678,0.3540314282226137,0.5585712541639779,0.4805274081308753
0.5203902927195397,0.5275275275275274,0.7527527527527527,0.5018016289655894,0.4952229799257024,0.4997715262396009
0.7900925694270704,0.7617617617617616,0.7812812812812813,0.5040288121108534,0.5144060554266878,1.0
0.5754315736802603,0.4884884884884884,0.5875875875875876,0.6722168931056735,1.0,0.3675375412037602
1.0000000000000002,1.0,0.8638638638638638,1.0,0.8176046880722745,0.0
0.6802601951463599,0.5192692692692692,0.6293793793793794,0.5125747771944817,1.0,0.5833528088319933
0.4978734050537904,0.5700700700700699,0.7202202202202201,0.0,0.3657219596421159,0.5175802710291784
0.5311483612709533,0.7469969969969968,0.557057057057057,1.0,0.6289673334844864,0.4555609815651325
0.9124343257443084,0.7369869869869868,1.0,0.0,0.4803128869665312,1.0
0.4816112084063048,0.7264764764764764,0.4832332332332332,0.8399619791757504,0.6072361651289743,0.5078587997279244
0.4350763072304229,0.5197697697697696,0.7017017017017017,0.6279453058234648,0.3712454436053508,0.6569562411706228
0.341506129597198,0.5085085085085084,0.5738238238238238,0.5392190034358267,0.3673701100511014,0.5715715855381341
0.686264698523893,0.4451951951951951,0.7547547547547546,0.5124526919790013,0.4863264558661946,0.8204736906360639
0.4413309982486866,0.7947947947947946,0.6721721721721721,0.0,0.4159600258123027,0.4891954584299841
0.719539654741056,0.5773273273273272,0.7742742742742742,0.5546331339274814,0.5236688351326368,1.0
0.5068801601200902,0.5925925925925924,0.8786286286286286,0.989118719151682,0.7069658335804105,0.3252803599769782
0.5198899174380787,0.5272772772772771,0.7525025025025025,0.5018469749027679,0.4952386765962642,0.4997104836318607
0.5901926444833626,0.5425425425425424,0.5285285285285285,0.5359087500218009,0.0,0.778521722447983
1.0000000000000002,0.9269269269269268,0.0,0.0582799937213318,0.8648813157298079,0.0275459127613931
0.4766074555916939,0.7202202202202201,0.4784784784784784,0.6706297853044282,0.5824842597275756,0.4753230898023963
0.881661245934451,0.376126126126126,0.7607607607607607,0.5072344210544675,0.4962153583201074,0.1429931806686781
0.5203902927195397,0.5277777777777777,0.7530030030030029,0.5019080175105081,0.495177633988524,0.4998011755062176
0.8393795346509885,0.5913413413413412,0.7409909909909909,0.4508450040985751,0.498930882327293,1.0
0.495371528646485,0.7074574574574574,0.505005005005005,0.2051642046148211,0.4630535256466156,0.481854648830598
0.3347510632974732,0.5492992992992992,0.6884384384384383,0.6314247344646563,0.3103563144217521,0.6316078622878769
0.8616462346760072,0.8163163163163162,1.0,0.876587543819872,0.1397265291173239,0.8359471196609519
0.0022516887665749,0.8843843843843842,0.0,0.070122259622931,0.7939201562690759,0.0
0.1238428821616213,0.9394394394394392,0.0,1.0,0.5513978757172506,0.4763608141339798
0.9684763572679512,1.0,0.7535035035035034,0.3981198876816018,0.2677782234857073,0.0
0.1280960720540406,0.5105105105105104,0.6989489489489489,0.5359227026178558,0.9412159687461849,0.3374435355878403
0.5091318488866652,0.5685685685685685,0.5232732732732732,1.0,1.0,0.0636831365435932
0.3635226419814862,0.5755755755755755,0.7394894894894894,0.4560789716936707,0.4932399672113993,0.5241571759945585
0.5349011758819116,0.5615615615615615,0.8068068068068068,0.3050299108777927,0.5187854265134206,0.4624430995692136
0.9694771078308732,0.7062062062062061,0.782032032032032,0.4988715837940596,0.5213945619756876,0.0
0.5801851388541408,0.7222222222222221,0.4814814814814814,1.0,0.8024207754155257,0.3492404555522612
0.3082311733800351,0.6423923923923922,0.7072072072072071,0.6313479951863543,0.6163018644156478,0.925116416973333
0.6109582186639981,0.623123123123123,0.7637637637637638,0.4540959589793676,0.5683834173395887,0.4294190487817639
0.4233174881160871,0.9717217217217216,0.97022022022022,0.0,0.0,1.0
0.5206404803602703,0.5275275275275274,0.7527527527527527,0.5018312782322061,0.4952386765962642,0.4997715262396009
0.7162872154115588,0.4419419419419418,0.7417417417417417,0.4945375586445052,0.4869368819435966,0.0
0.2144108081060796,0.5225225225225224,0.0,0.0955473777839789,0.9761776863107592,0.0
0.5198899174380787,0.528028028028028,0.7525025025025025,0.5019080175105081,0.4952229799257024,0.499694786961299
0.5208906680010009,0.5275275275275274,0.7522522522522521,0.5017545389539041,0.495177633988524,0.4997401328984774
0.4265699274455843,0.6899399399399399,0.6686686686686687,1.0,0.7227741249106162,0.3563057013795629
0.5203902927195397,0.5275275275275274,0.7522522522522521,0.5018766241693845,0.4952090273296475,0.4997104836318607
0.5206404803602703,0.5275275275275274,0.7522522522522521,0.5018016289655894,0.495177633988524,0.4997715262396009
0.312734550913185,0.5768268268268267,0.8085585585585585,0.4570713500880757,0.1851422292760347,0.5077524111830057
0.4263197398048537,0.5240240240240239,0.7792792792792792,0.5315276348605612,0.5153216945427909,0.5012051554842423
0.3179884913685264,0.6366366366366365,0.7542542542542542,0.5851840870641993,0.5866351570539093,0.9932853131485776
1.0000000000000002,1.0,0.0,0.1638994017824441,0.4863421525367564,0.1234578021173064
0.2929697272954717,0.6233733733733733,0.6904404404404404,0.6337600502293458,0.7286656085947991,0.5345658126515165
0.6670002501876409,0.4461961961961961,0.7314814814814814,0.5141775816662888,0.4827859846172628,1.0
0.8223667750813112,0.573073073073073,0.7217217217217217,0.5120096970542581,0.4912098644854108,1.0
0.0380285213910433,1.0,0.1138638638638638,0.0,0.0215637372028532,0.424825156530687
0.5201401050788093,0.5275275275275274,0.7525025025025025,0.5018155815616443,0.495254373266826,0.4997558295690392
0.5201401050788093,0.5275275275275274,0.7522522522522521,0.5018312782322061,0.495177633988524,0.4997558295690392
0.4973730297723294,0.7787787787787787,0.5773273273273273,1.0,0.6884681793606222,0.6219631302649249
0.5926945208906681,0.6724224224224222,0.7775275275275275,0.4784676561382702,0.4467394527094197,0.0
1.0000000000000002,0.9346846846846846,1.0,0.1914296178732755,0.6029945759282836,0.726529117323892
0.422316737553165,0.6033533533533533,0.7412412412412412,0.53314613600293,0.4942619948724209,1.0
0.3682762071553666,0.4792292292292291,0.7652652652652652,0.6193382981320962,0.4931021853253571,0.5195632837434815
0.5048786589942458,0.5883383383383383,0.7254754754754754,0.5500392416764044,0.5271936097110068,1.0
0.4060545409056794,0.4296796796796796,0.7092092092092092,0.4085128276679979,1.0,0.2569440326490748
0.2907180385288967,0.6093593593593593,0.7602602602602602,0.5922667736365698,0.5254547674276645,1.0
0.3397548161120841,0.7034534534534533,0.4134134134134134,1.0,0.5449587526379127,0.5366412613146834
0.5206404803602703,0.5275275275275274,0.7530030030030029,0.5018312782322061,0.4951933306590858,0.499694786961299
0.1288466349762322,0.5705705705705705,0.6826826826826826,0.5859479916982053,0.8187191516821599,0.3306381568620611
0.5203902927195397,0.5275275275275274,0.752002002002002,0.5017859322950277,0.4951933306590858,0.4996790902907372
0.5203902927195397,0.5275275275275274,0.7527527527527527,0.5018155815616443,0.4951933306590858,0.4997104836318607
0.7310482862146612,0.6203703703703702,0.7835335335335334,0.5600362767497428,0.5152763486056124,1.0
0.5293970477858395,0.572072072072072,0.744994994994995,0.4955438896349652,0.4843730924185081,0.4188900709838324
0.4911183387540657,0.7107107107107106,0.4459459459459459,0.0,0.1986169489160577,0.5275145194202696
0.4448336252189143,0.5477977977977977,0.8148148148148147,0.0,0.5712820691699949,0.4239566074262693
0.5691768826619966,0.604104104104104,0.7332332332332332,1.0,0.6426112283516752,0.4838237089488463
0.5201401050788093,0.5275275275275274,0.7525025025025025,0.5018609274988227,0.4952386765962642,0.4997715262396009
0.5201401050788093,0.5275275275275274,0.7525025025025025,0.5019533634476865,0.4952229799257024,0.4997261803024225
0.5206404803602703,0.5275275275275274,0.7527527527527527,0.5018469749027679,0.4951619373179622,0.4996651376946823
0.5258944208156119,0.4539539539539539,0.7482482482482482,0.3146292969635663,0.4449709611594607,0.5269511833545529
0.4468351263447587,0.4554554554554554,0.7264764764764764,0.4170727453476812,0.0,0.9464656330118424
0.665248936702527,0.5492992992992992,0.6556556556556556,0.4576050368871758,0.9054903465476044,0.5857805605455465
0.5454090567925945,0.904154154154154,0.8698698698698698,0.0595322392172594,0.0285365470812913,1.0
0.557918438829122,0.6834334334334333,0.7492492492492492,0.4627029666707362,0.3564120899244816,0.0
0.3737803352514387,0.5625625625625624,0.9066566566566564,0.462565184784694,1.0,0.2966217276802065
0.4293219914936203,0.6096096096096095,0.7404904904904904,0.5602194045729634,0.5820569614733941,1.0
0.4363272454340757,0.8305805805805805,0.5305305305305305,0.0,0.2728290632575824,0.4949038142909465
0.3745308981736303,0.568068068068068,0.894144144144144,0.564155780734953,1.0,0.3051362994227113
0.4866149612209158,0.5165165165165164,0.761011011011011,0.0,0.5421350960113016,0.5221584666096936
0.850137603202402,0.7384884884884884,0.7615115115115114,0.4530896279889077,0.4515775153914575,0.0
0.4753565173880412,0.4634634634634634,0.7102102102102101,2.9649266616693648e-05,0.5045624989099534,0.4373999337251687
0.5596697523142358,0.5130130130130129,0.6656656656656657,0.4342728081343635,0.0,0.7638261506531558
0.4976232174130599,0.6306306306306305,0.7464964964964964,1.0,0.7758358477074141,0.4062228578404869
0.5586690017513136,0.9429429429429428,0.7595095095095095,0.0,0.3902157420164989,0.7711826569231037
0.8824118088566426,0.653153153153153,0.0005005005005005,0.736632540942149,0.9491061618152328,0.7029823674067356
0.5203902927195397,0.5275275275275274,0.7522522522522521,0.5018469749027679,0.4952090273296475,0.4997104836318607
0.5949462096572431,0.4389389389389388,0.8838838838838838,0.8963653487276977,0.6594886373545877,0.4163559307253606
0.6522391793845386,0.6358858858858858,0.5242742742742742,0.3604565987058967,0.2413938643458849,0.5677276453250083
0.0,0.934184184184184,0.0,0.6089453581456999,0.999923260721698,0.9886460749603224
0.3872904678508883,0.6343843843843843,0.7655155155155156,0.497390864537733,0.4920644609937736,0.0
0.484863647735802,0.4289289289289288,0.6606606606606606,0.4250693269616478,1.0,0.385163158170117
0.4488366274706031,0.4877377377377376,0.6328828828828829,0.1368732232240961,0.4191185447442315,0.4694629994593369
0.4335751813860397,0.4997497497497496,0.7029529529529529,0.6789315799570957,0.1022917139020179,0.812278284528315
0.5203902927195397,0.5275275275275274,0.7527527527527527,0.5018016289655894,0.4953154158745662,0.499694786961299
0.3422566925193896,0.5337837837837837,0.6976976976976976,0.6154769171739016,0.1240071855869682,0.6181941852555941
0.5203902927195397,0.5275275275275274,0.7525025025025025,0.5017405863578492,0.4952229799257024,0.4996494410241205
0.5989492119089319,0.517017017017017,0.7805305305305306,0.5377853741911854,0.5623245025027469,1.0
0.7285464098073557,0.3653653653653653,0.832082082082082,0.537206341454907,0.3616931475312625,0.0
0.4796097072804605,0.4884884884884884,0.7319819819819819,0.3437919667928214,1.0,0.1482271482637738
0.4758568926695022,0.9567067067067064,0.6008508508508508,0.0,1.0,0.699120986448541
0.4893670252689518,0.5362862862862862,0.7942942942942943,0.103727087221166,0.3213282871444268,0.495711320787624
0.7778333750312736,0.3143143143143142,0.7662662662662663,0.4969635662835516,0.4841132253169855,0.7880304166593997
0.6502376782586942,0.5905905905905905,0.5162662662662663,0.4107714041543855,0.4839614908348885,0.6719116800669724
0.3877908431323493,1.0,0.0,0.0,0.8775938748103319,0.6813732842667038
0.5203902927195397,0.5275275275275274,0.7532532532532532,0.5018155815616443,0.4952090273296475,0.4997104836318607
0.4758568926695022,0.6896896896896896,0.7172172172172171,0.0,0.3770898372778485,0.6308753509949945
0.4500875656742558,0.6949449449449449,0.6631631631631631,1.0,0.5876885780560546,0.5451872263983117
0.4993745308981737,0.7272272272272271,0.6013513513513513,1.0,0.8042973995849103,0.4844184383556865
0.5426569927445586,0.6298798798798798,0.7555055055055054,1.0,0.5795088686188674,0.4305788583288278
0.4711033274956218,0.7732732732732732,0.3878878878878878,1.0,0.7995971187889146,0.4145246524931545
0.5201401050788093,0.5275275275275274,0.7527527527527527,0.5018923208399463,0.4951165913807838,0.4997558295690392
0.2379284463347511,0.9797297297297296,0.0,0.712290493049863,0.6347506845492439,0.8576329420792856
0.4878658994245685,0.6544044044044043,0.8023023023023023,0.540731116033277,0.5461482114515932,1.0
0.5206404803602703,0.5275275275275274,0.7525025025025025,0.5018312782322061,0.4952229799257024,0.4997261803024225
0.675256442331749,0.8648648648648647,0.8063063063063063,1.0,1.0,0.1230165512670701
0.5203902927195397,0.5275275275275274,0.7522522522522521,0.5017859322950277,0.4952229799257024,0.499694786961299
0.5203902927195397,0.5272772772772771,0.7522522522522521,0.5018469749027679,0.4951322880513455,0.4997854788356559
0.0930698023517638,0.3738738738738738,0.9674674674674674,0.9914086889791932,1.0,0.5294225369307777
0.5203902927195397,0.5275275275275274,0.7527527527527527,0.5018016289655894,0.4952229799257024,0.4997104836318607
0.0,0.92017017017017,0.9924924924924924,0.4609780769834487,0.6748260285679404,1.0
0.0,0.8918918918918917,0.0,0.0,0.1155833057188203,0.8716727418595323
1.0000000000000002,0.1108608608608608,0.8115615615615615,0.5208922685177111,0.4779636186057868,0.5748225404189267
0.3550162621966476,0.5352852852852852,0.725975975975976,0.6708582590648272,0.7451017667474754,0.489591363343042
0.4946209657242933,0.7069569569569568,0.4654654654654654,0.728986518304062,0.6029492299911052,0.5467272441878717
0.6102076557418065,0.5022522522522521,0.7525025025025025,0.4849992151664719,0.4914383382458098,1.0
0.3034776082061547,0.6463963963963963,0.1826826826826827,0.0,0.0,0.0
0.6602451838879161,0.4947447447447446,0.7577577577577577,0.5162059403177703,0.4891187191516821,0.7483527216282679
0.946459844883663,1.0,1.0,0.0,1.0,0.8427385457906762
0.9324493370027522,0.4557057057057056,0.7640140140140139,0.4852730348640494,0.4833196714163629,0.972820342885048
0.2979734801100826,0.5262762762762762,0.7049549549549549,0.6165146415054851,0.3259378760660655,0.6179953607618117
0.4696022016512385,0.1599099099099098,0.5115115115115115,0.019671416362907,0.3220607984373093,0.4202783542912953
0.5203902927195397,0.5275275275275274,0.7525025025025025,0.5018609274988227,0.4951933306590858,0.4997715262396009
0.6477358018513887,0.4832332332332331,0.6794294294294294,0.389375098104191,0.7280098365802187,0.5992395835150077
0.4295721791343508,0.5287787787787787,0.6514014014014013,0.510255158100354,0.0,0.6658370685595689
0.5201401050788093,0.5272772772772771,0.752002002002002,0.5018312782322061,0.4952386765962642,0.4997104836318607
0.5486614961220917,0.4499499499499498,0.793043043043043,0.1910023196190941,1.0,0.2982245321520135
0.8406304728546412,0.4404404404404403,1.0,0.8330781170971624,0.0,0.8537576085250362
0.5203902927195397,0.5277777777777777,0.7522522522522521,0.5018016289655894,0.4952229799257024,0.4997715262396009
0.5206404803602703,0.5277777777777777,0.7535035035035034,0.5018766241693845,0.4951462406474005,0.4997558295690392
0.6319739804853641,0.6236236236236236,0.5665665665665666,0.4836859270628041,0.0,0.6484556220241728
0.0,1.0,0.6088588588588588,1.0,1.0,0.1097546087168844
0.4610958218663999,0.6506506506506505,0.6739239239239239,1.0,0.5516420461482114,0.5623401991733087
0.5066299724793597,0.7555055055055053,0.5362862862862863,0.0124840853201249,0.4301062141374679,0.4459458988087971
0.5203902927195397,0.5277777777777777,0.752002002002002,0.5018155815616443,0.4952386765962642,0.4997261803024225
0.5203902927195397,0.5272772772772771,0.7522522522522521,0.5018469749027679,0.4952090273296475,0.4997401328984774
0.6207155366524895,0.6118618618618618,0.7615115115115114,0.5025637895250885,0.4961543157123672,1.0
0.5341506129597199,0.5092592592592592,0.7747747747747746,0.7713500880757627,0.5276836946474354,0.4807262326246577
0.1861396047035277,0.8208208208208208,1.0,0.1468074716151874,1.0,1.0
0.2371778834125595,0.909159159159159,0.0002502502502502,0.7155414479306555,0.5946770846050543,0.0
0.0,0.7329829829829828,0.335085085085085,0.0,0.4096412438739383,0.8316444878525211
0.2344258193645235,0.6433933933933933,0.7412412412412412,0.5448506200184872,0.5156269075814919,0.9943683834173396
0.3530147610708032,0.609109109109109,0.9024024024024024,0.6064426112283516,0.7577829324868759,0.4085581736051764
0.5206404803602703,0.5277777777777777,0.7527527527527527,0.5018016289655894,0.4951462406474005,0.4997715262396009
0.5206404803602703,0.5277777777777777,0.7527527527527527,0.5017405863578492,0.4951462406474005,0.499618047682997
0.5203902927195397,0.5272772772772771,0.7525025025025025,0.5018016289655894,0.495177633988524,0.499694786961299
0.6352264198148613,0.9134134134134132,0.0,0.0,1.0,0.4714024103109684
0.49311983987991,0.7237237237237236,0.6446446446446445,1.0,0.6775119033085093,0.4605507787292673
0.7065298974230675,0.7147147147147146,0.5097597597597597,0.9192720233008354,0.6323560702513211,1.0
0.312734550913185,0.7214714714714714,0.6544044044044044,0.6239321903831732,0.7001744074506863,1.0
0.4776082061546161,0.7442442442442441,0.5330330330330331,0.0,0.4144950032265378,0.4909046514467098
0.5203902927195397,0.5277777777777777,0.7530030030030029,0.5018609274988227,0.4951322880513455,0.4997261803024225
0.9024268201150863,0.9451951951951952,0.4572072072072072,1.0,1.0,0.2404171826220416
0.69852389291969,1.0,0.2372372372372372,0.0,1.0,0.7052409438931231
0.5719289467100327,0.5150150150150149,0.5880880880880881,0.500687165355704,0.0,0.8029998081518042
0.631473605203903,0.4456956956956956,0.7817817817817817,0.4955281929644034,0.5076146292969635,0.9743778014196768
0.5203902927195397,0.5275275275275274,0.7522522522522521,0.5018469749027679,0.495254373266826,0.4997261803024225
0.2737052789592195,0.5863363363363362,0.7722722722722721,0.5808500619146449,0.8133003121893367,0.3746638296388022
0.1998999249437079,0.6961961961961961,0.7852852852852852,0.5044107644278564,0.4898372778485096,0.0
0.2411808856642482,0.593093093093093,0.7122122122122121,0.4623820569614734,0.9900954008755254,0.2446430751521705
0.0,0.4582082082082081,0.3415915915915916,0.7112388161222247,1.0,1.0
0.5659244433324995,0.6223723723723723,0.7592592592592592,0.5146502258576486,0.5093848649214294,0.0
0.4858643982987242,0.6806806806806805,0.4096596596596596,0.5760590892442925,0.4844027416851248,0.583063292463854
0.4648486364773581,0.6063563563563562,0.7352352352352352,0.4542023475242862,0.4120532989169297,0.0
0.435576682511884,0.5778278278278277,0.76001001001001,0.6138444634354779,0.0,0.8713221828836528
0.7678258694020517,0.7665165165165164,0.0,1.0,0.3559551424036835,0.6756352791391248
0.1371028271203403,0.6979479479479478,0.0,0.1278528698746011,0.0412334094912534,0.0
0.4478358769076809,0.4822322322322321,0.7222222222222222,0.0,0.5913197411793432,0.3392591171494846
0.5038779084313236,0.4759759759759759,0.7269769769769769,0.5209986570626297,0.0,0.9003941608385511
0.709532149111834,0.5648148148148147,0.6356356356356356,0.6103493381237246,0.0216404764811553,0.6690723267697996
0.6332249186890169,0.4261761761761761,0.7474974974974975,0.497085651499032,0.5581579085058513,0.99694786961299
0.21916437327996,0.7022022022022021,0.1719219219219219,1.0,0.0,0.4100074995203795
0.4343257443082313,0.4682182182182181,0.7607607607607607,0.5149240455552261,0.509186040427647,0.4154106423426409
0.4448336252189143,0.7199699699699699,0.6333833833833833,1.0,0.7520449273592967,0.5226921534087936
0.5466599949962473,0.4947447447447446,0.8315815815815815,0.4089244292516176,1.0,0.2519071454732546
0.4648486364773581,0.523023023023023,0.7257257257257257,0.6481347123149102,1.0,0.3084326002406823
0.7595696772579437,0.6218718718718718,0.5605605605605606,0.5557022516001884,0.136735441338054,0.5881612222474144
0.4108081060795598,0.6183683683683683,0.7374874874874874,0.4338298132096203,0.3919999302370197,0.0
0.4243182386790093,0.6493993993993993,0.7012012012012012,0.644700629610897,0.5148943962886094,0.7245600572056439
0.5906930197648238,0.5247747747747746,0.6571571571571571,0.4817482602856794,0.4002110330153304,0.0
0.3972979734801102,0.5503003003003002,0.6914414414414414,0.6226956415578073,0.0002284737603991,0.6742609484277168
0.4558418814110584,0.5523023023023022,0.6976976976976976,0.7250640947381272,0.0013272406997227,0.7008144827947049
0.6875156367275458,0.4149149149149148,0.7582582582582582,0.5107731482288923,0.4962920975984094,0.946251111847498
0.6079559669752316,0.5663163163163162,0.7595095095095095,0.5311927725552436,0.527254652318747,1.0
0.5201401050788093,0.5275275275275274,0.752002002002002,0.5018469749027679,0.4951619373179622,0.4997401328984774
0.5509131848886666,0.5080080080080079,0.7785285285285285,0.1814796728116225,0.4424525175715507,0.4961839649789839
0.5203902927195397,0.5277777777777777,0.7522522522522521,0.5018155815616443,0.4952229799257024,0.4997558295690392
0.498123592694521,0.4604604604604603,0.8966466466466466,0.2581038421961386,1.0,0.1938713221828836
0.5118839129347011,0.7875375375375374,0.5625625625625625,0.0,0.471294277691543,0.4337373772607565
0.5111333500125095,0.4762262262262261,0.5523023023023023,0.414250832795577,0.0,0.7339920121387585
0.0197648236177133,1.0,0.0,0.777911296370581,0.4657847463243629,0.0
0.5026269702276709,0.7667667667667666,0.6691691691691691,1.0,0.5361058304410764,0.5077070652458273
0.4258193645233926,0.7354854854854853,0.7597597597597596,1.0,0.769412421298638,0.5426844794809634
0.0,0.568068068068068,0.0,0.0,0.9997104836318608,0.8434100144758184
0.5201401050788093,0.5275275275275274,0.7522522522522521,0.5018155815616443,0.495177633988524,0.4998011755062176
0.4125594195646736,0.5603103103103102,0.8538538538538538,0.3986535744807018,1.0,0.216273959223538
0.43832874655992,0.6569069069069068,0.7312312312312312,0.3813942131607862,0.4865863229677172,0.0
0.5198899174380787,0.5277777777777777,0.7530030030030029,0.5017859322950277,0.4951322880513455,0.499694786961299
0.8406304728546412,0.4339339339339338,1.0,0.1238397544343094,0.9218654620925406,0.5077681078535675
0.1403552664498374,0.6416416416416415,0.771021021021021,0.4516246054031428,0.4784519594677084,0.1481957549226503
0.9544658493870404,0.0302802802802802,0.7617617617617617,0.5065315590282017,0.5001220852154804,0.2302370197254826
0.7548161120840633,0.3983983983983983,0.725975975975976,0.4514397335054153,0.5262797146694107,0.1765805675218445
0.8791593695271456,0.1111111111111111,0.7522522522522521,0.535373319148194,0.4798245461046095,0.4840521827092453
0.4978734050537904,0.5435435435435434,0.7484984984984985,0.2175262047194656,0.4482044752951846,0.4057816069902506
0.5236427320490369,0.61011011011011,0.7429929929929929,1.0,0.6157978268831644,0.4937126114027591
0.8013510132599451,0.4834834834834834,0.7622622622622621,0.530550953136718,0.4608716884385301,0.5985995081709891
0.4543407555666751,1.0,1.0,0.0,0.2797582712733488,0.7677485742190906
0.3249937453089818,0.5345345345345345,0.0593093093093093,1.0,0.1049479393759701,0.6912778833911785
0.3727795846885164,0.5190190190190189,0.5723223223223223,0.6085791024992587,0.3131782269738563,0.58735197167623
0.5233925444083064,0.8203203203203202,0.6116116116116116,0.5726860491480196,0.5099045991244746,1.0
1.0000000000000002,1.0,0.0,0.6889565202225438,0.2656417322148002,0.4372168059019481
0.5206404803602703,0.5275275275275274,0.7522522522522521,0.5018469749027679,0.4951165913807838,0.4997401328984774
0.5073805354015513,0.4992492492492492,0.6716716716716716,0.0,0.3245025027469174,0.4439175401573155
0.999499624718539,0.7154654654654653,0.0,0.759523518844725,0.8125834975670161,0.5004272982541814
0.5206404803602703,0.5275275275275274,0.7522522522522521,0.5018766241693845,0.4951322880513455,0.4997104836318607
0.9279459594696025,0.2124624624624624,0.7615115115115114,0.503219561539669,0.5047159774665574,0.1299754085494532
0.3745308981736303,0.5708208208208208,0.6423923923923923,0.6205591502869002,0.5211974815564121,0.653033817604688
0.5208906680010009,0.5277777777777777,0.7530030030030029,0.5019219701065629,0.495177633988524,0.4998168721767794
0.482611958969227,0.557057057057057,0.7494994994994995,0.0,0.4521112021905575,0.4471824476341629
0.299974981235927,0.5813313313313312,0.7289789789789789,0.6132340373580759,0.87950189232084,0.3914052008301795
0.4971228421315988,0.7675175175175174,0.4416916916916916,0.0,0.2896471737272617,0.4352634424542616
0.5123842882161622,0.6406406406406405,0.5958458458458458,0.0,0.4124805971711112,0.4722552627448244
0.5203902927195397,0.5275275275275274,0.7527527527527527,0.5017702356244659,0.4952229799257024,0.4996337443535588
0.6484863647735803,0.607107107107107,0.5880880880880881,0.4892111551005459,0.4470917557598061,0.4690810471423339
0.5481611208406306,0.4306806806806806,0.7319819819819819,0.4922318921464325,0.5100423810105168,1.0
0.7320490367775834,0.622122122122122,0.7172172172172171,0.489896576381743,0.5696792646981879,1.0
0.5203902927195397,0.5265265265265264,0.7522522522522521,0.5017702356244659,0.495177633988524,0.4997715262396009
0.4671003252439331,0.5162662662662661,0.8413413413413413,0.5253780281493625,1.0,0.2051799012853829
0.7348011008256193,0.8488488488488487,0.7272272272272272,0.4861590247135358,0.5664910964996425,0.0
0.6947710783087317,0.4929929929929929,0.6458958958958958,0.3847515565864974,0.0,0.7306643179796641
0.4598448836627472,0.5167667667667667,0.8953953953953953,0.4353715750736872,1.0,0.2167169541482812
0.3942957217913436,0.5838338338338337,0.6919419419419419,0.5431885170134468,0.4619390620367302,0.998625669288592
0.3610207655741807,0.5688188188188187,0.7354854854854854,0.487746132514781,0.4920330676526501,0.5381359331670649
0.5391543657743308,0.4264264264264263,0.6694194194194194,0.7581334914627553,0.4433978059542703,0.4620925405933341
0.1308481361020766,1.0,0.1764264264264264,0.0,1.0,0.5706419938259762
0.5206404803602703,0.5277777777777777,0.7530030030030029,0.5018016289655894,0.4951322880513455,0.4997558295690392
1.0000000000000002,1.0,0.0,0.0,1.0,0.1738493468440972
0.5206404803602703,0.5272772772772771,0.752002002002002,0.5018469749027679,0.4952386765962642,0.4997558295690392
0.4610958218663999,0.4827327327327326,0.6681681681681682,0.3835620977728168,0.0,0.6627849381725588
0.490367775831874,0.4937437437437436,0.6994494494494494,0.4523414200254635,0.0,0.9069553691333694
0.4460845634225671,0.5618118118118117,0.7562562562562563,0.5206620506828051,0.5154751730993948,0.4334025149554389
0.6629972479359522,0.5457957957957957,0.557057057057057,0.5825139089941922,0.1095400875525403,0.6784589357657359
0.4625969477107832,0.7094594594594593,0.474974974974975,0.0523588607705321,0.3740691002319619,0.4241693845161065
0.7490617963472606,0.6769269269269268,0.8313313313313313,0.5217608176221288,0.455515635627954,0.0
0.4803602702026521,0.7760260260260259,0.6356356356356356,1.0,0.7089488462947138,0.5565568481085512
0.7107830873154868,0.4446946946946946,0.7575075075075075,0.5012051554842423,0.5258977623524077,1.0
0.5203902927195397,0.5275275275275274,0.7522522522522521,0.5018155815616443,0.4951933306590858,0.4997104836318607
0.0,0.6599099099099098,1.0,0.9997558295690392,0.9998936114550814,0.9423757782932488
0.5288966725043784,1.0,0.1171171171171171,1.0,0.0,0.0
0.4686014510883163,0.4977477477477476,0.6441441441441441,0.6187121753841324,0.6043218166280063,0.4243839056804507
0.4608456342256694,0.5635635635635634,0.7044544544544544,0.6082442401939411,0.5760433925737307,1.0
0.5286464848636478,0.5748248248248247,0.7635135135135135,0.4834417566318433,0.6132497340286377,0.4565376632889757
0.4736052039029273,0.674174174174174,0.4209209209209209,0.5227235467499172,0.5316497200760416,0.5534279784432391
0.2426820115086316,0.5347847847847846,0.5673173173173173,0.5463627326159374,0.434928580148944,0.5885885205015958
0.5078809106830124,0.4311811811811811,0.6231231231231231,0.4935905261872787,0.0,0.8578474632436297
0.1030773079809858,0.7154654654654653,0.7377377377377377,0.418462772729651,0.4650993250431658,0.0149397422257878
0.487615711783838,0.5097597597597596,0.7897897897897898,0.3527809268011929,1.0,0.1230618972042486
0.5206404803602703,0.5277777777777777,0.7530030030030029,0.5018469749027679,0.4951462406474005,0.4997261803024225
0.8116087065298976,0.8100600600600599,0.6246246246246245,0.4866020196382789,0.4581858136979612,0.0
0.3159869902426821,0.5833333333333333,0.804054054054054,0.4432146781310497,0.9995727017458186,0.2963322113120672
0.8393795346509885,0.2945445445445445,0.8295795795795795,0.5256832411880635,0.4617576782880164,0.0558993320194639
0.2499374530898174,0.7907907907907907,0.7207207207207207,0.3558784031253815,0.4594066658527652,0.0
0.4913685263947962,0.6904404404404403,0.4351851851851852,0.4895774107469871,0.5305980431484033,0.6034829167902053
0.4691018263697775,0.7692692692692691,0.5497997997997998,0.1500880757625965,0.4620925405933341,0.47840661353053
0.6357267950963224,0.8656156156156154,0.214964964964965,1.0,1.0,0.0207998325688473
0.4618463847885916,0.5340340340340339,0.6776776776776776,0.4750178767636953,0.0,0.7526553534366989
0.5221416062046537,0.7464964964964964,0.4834834834834834,1.0,0.6968170640249751,0.656863805221759
0.8731548661496125,1.0,0.9867367367367366,1.0,0.4181261663498264,0.0512600938312085
0.372529397047786,0.563063063063063,0.6909409409409408,0.6678828679561191,0.3918638924254844,0.6285557319008668
0.2509382036527396,0.9824824824824824,0.3561061061061061,0.0,0.7702652737324938,0.6625407677415979
0.3717788341255943,0.5472972972972971,0.7164664664664664,0.5444686677014842,0.5102708547709158,0.0
1.0000000000000002,0.5748248248248247,1.0,0.934989622756684,1.0,0.0740446831888658
1.0000000000000002,0.1096096096096095,0.7617617617617617,0.5110033660637983,0.4912098644854108,0.2095749690426775
0.125093820365274,0.4904904904904904,1.0,0.9838533582154628,1.0,0.000151734482097
0.7390542907180386,0.5983483483483483,0.627127127127127,0.4195161937317962,0.479704204963636,0.0
0.461596197147861,0.523023023023023,0.834084084084084,0.0935469243246071,0.3622564835969792,0.4971466941067722
0.5201401050788093,0.5275275275275274,0.7525025025025025,0.5018469749027679,0.495254373266826,0.4997261803024225
0.1220915686765075,0.7014514514514514,0.3055555555555556,0.0,0.0468493294033521,0.5053717494811378
0.1901426069552164,0.4009009009009008,0.0,0.0298341385143973,1.0,1.0
0.5426569927445586,0.5467967967967967,0.7352352352352352,0.5086227043619304,0.559104940963078,1.0
0.8461346009507131,0.5162662662662661,0.7379879879879879,0.4692502223694996,0.4536233147880077,0.0
0.5326494871153367,0.3881381381381381,0.7389889889889889,0.3028480736697072,0.4565219666184139,0.5055391806337967
0.3355016262196648,0.5768268268268267,0.7797797797797796,0.6197655963862776,0.5414636273261594,0.4869211852730348
1.0000000000000002,1.0,0.839089089089089,1.0,0.0,0.0139944538430681
0.5206404803602703,0.5275275275275274,0.7530030030030029,0.5018155815616443,0.4951619373179622,0.4998325688473412
0.1320990743057293,0.6366366366366365,0.7525025025025025,0.5187243839056804,0.5188935591328462,0.9985960200219752
0.474355766825119,0.7144644644644643,0.5588088088088088,0.0036172105272337,0.4444808762230322,0.5458726476795088
0.3995496622466851,0.5648148148148147,0.8433433433433433,0.4281824999563981,0.9730959066571324,0.36694281179692
0.7080310232674507,0.599099099099099,0.5823323323323323,0.5666881769189179,0.2706629227200586,0.7539075989326264
0.5206404803602703,0.5275275275275274,0.752002002002002,0.5018469749027679,0.4951933306590858,0.499694786961299
0.1636227170377784,0.5913413413413412,0.76001001001001,0.604733418211626,0.9585206760032788,0.2774072588380976
0.5203902927195397,0.5275275275275274,0.752002002002002,0.5018469749027679,0.4951619373179622,0.4997104836318607
0.5201401050788093,0.5275275275275274,0.7525025025025025,0.5018923208399463,0.4952090273296475,0.4996790902907372
0.5203902927195397,0.5277777777777777,0.7522522522522521,0.5018312782322061,0.4952090273296475,0.4997558295690392
0.0,0.9386886886886884,0.0,0.6453424490294225,0.993866089959363,0.9999843033294382
0.4508381285964474,0.5653153153153152,0.3626126126126126,0.0,0.2087203725343147,0.6851108359349112
0.5391543657743308,0.573073073073073,0.7575075075075075,0.982159861869299,0.5499625023981024,0.4828627238955648
0.3860395296472355,0.5162662662662661,0.7069569569569569,0.6261750701989989,0.194070146676666,0.7528070879187958
0.5201401050788093,0.5272772772772771,0.7522522522522521,0.5018923208399463,0.4951619373179622,0.4997261803024225
0.2416812609457094,1.0,0.2359859859859859,1.0,0.2114062472748836,0.2819401084814343
0.5203902927195397,0.5272772772772771,0.7525025025025025,0.5017405863578492,0.4952386765962642,0.4997104836318607
0.0,0.4389389389389388,0.7897897897897898,0.9761166437030188,0.4212393393445768,0.5588136805204318
0.9494620965724296,0.6989489489489489,0.9889889889889888,1.0,0.0,0.5821633500183128
0.0,1.0,1.0,1.0,0.8464621448628286,1.0
0.4543407555666751,0.5745745745745745,0.7307307307307307,0.4542633901320264,0.4605664753998291,0.0
0.5203902927195397,0.5275275275275274,0.7517517517517517,0.5017545389539041,0.495254373266826,0.499694786961299
0.2271703777833376,0.7264764764764764,0.7429929929929929,0.4251007203027713,0.4917295986884559,0.0
0.5208906680010009,0.5277777777777777,0.7522522522522521,0.5018312782322061,0.4951165913807838,0.4997104836318607
0.4938704028021017,0.6906906906906906,0.4504504504504504,0.5328095296231055,0.4872263983117358,0.5386853166367267
0.4956217162872155,0.6416416416416415,0.7317317317317317,1.0,0.6306765265012122,0.4473202295202051
0.4363272454340757,0.4466966966966966,0.6391391391391391,0.5775851544377976,0.0,0.8108289586131119
0.9762321741305982,0.869119119119119,0.7782782782782782,0.412266076006767,0.4180354744754696,0.0
0.6527395546659996,0.6266266266266265,0.6073573573573573,0.4552557685264314,0.713282871444268,0.4747894030032963
0.5196397297973482,0.5277777777777777,0.7522522522522521,0.5018923208399463,0.495254373266826,0.4997558295690392
0.294971228421316,0.6346346346346345,0.7134634634634633,0.6229851579259466,0.4384847480684375,0.9103894518373824
0.5206404803602703,0.5275275275275274,0.7527527527527527,0.5018766241693845,0.4952090273296475,0.4997104836318607
0.5356517388041032,0.5095095095095095,0.6911911911911912,0.5015714111306835,1.0,0.1347210352826273
0.0,0.9899899899899898,0.1468968968968969,0.0,0.0,0.1313479951863543
0.0,0.6298798798798798,0.6076076076076076,0.9860979821057956,1.0,0.9998168721767792
0.5111333500125095,0.4259259259259258,0.7552552552552552,0.5787606606554232,0.5017248896872875,0.5033730400962729
0.4916187140355267,0.7449949949949949,0.487987987987988,1.0,0.7554179674555697,0.6232450250274691
0.3132349261946461,0.7349849849849849,0.1766766766766767,0.0,0.0,0.2389207666951532
0.5796847635726796,0.8626126126126125,0.0875875875875876,0.0,1.0,0.5610879536773811
0.5073805354015513,0.7527527527527527,0.5497997997997998,0.9965659172959868,0.6495229956223729,0.6030242251949003
1.0000000000000002,1.0,0.0,0.9997401328984774,0.0040445087814152,0.8064792367929958
0.0,0.4256756756756756,0.0,1.0,1.0,0.9382859235746552
0.4280710532899676,0.629129129129129,0.7635135135135135,0.3984564940614263,0.3699635488428066,0.0
0.675256442331749,0.8966466466466465,0.2837837837837837,0.0,1.0,0.6387184540523572
0.0760570427820866,0.7845345345345344,0.7797797797797796,0.5761811744597729,0.5633308334932068,1.0
0.5203902927195397,0.5275275275275274,0.7532532532532532,0.5017859322950277,0.4951619373179622,0.499694786961299
0.8246184638478861,0.6183683683683683,0.5192692692692692,0.0,0.9858224183337112,1.0
0.3915436577433075,0.5045045045045045,0.8230730730730731,0.5437222038125469,1.0,0.2960269982733662
1.0000000000000002,0.9034034034034032,1.0,0.4613286359593281,0.5454157001587108,0.9777037515042644
0.680760570427821,0.5855855855855855,0.5685685685685685,0.5921900343582678,0.4133648429460906,0.714671154751731
0.5203902927195397,0.5275275275275274,0.7530030030030029,0.5018312782322061,0.4952840225334426,0.4997715262396009
0.4623467600700526,0.5955955955955955,0.7204704704704704,0.6085041072954637,0.6419694089331496,1.0
0.5236427320490369,0.6313813813813813,0.5928428428428428,0.0,0.316643703018993,0.5119486544465179
0.2957217913435077,0.6078578578578577,0.8666166166166165,0.5687339763154682,0.8292481294800914,0.3046479585607897
0.5201401050788093,0.5275275275275274,0.7527527527527527,0.5017702356244659,0.495177633988524,0.499694786961299
0.4635976982737054,0.751251251251251,0.5172672672672672,1.0,0.992796972286656,0.0
0.4570928196147111,0.7920420420420419,0.5583083083083082,0.0094929975408549,0.3648220171965746,0.6323246769101976
0.4781085814360772,0.5985985985985985,0.7655155155155156,0.5246001709193017,0.5700612170151909,1.0
0.2922191643732801,0.586086086086086,0.793043043043043,0.5927533704239845,0.5840399741876973,0.3796239775363204
0.3427570678008507,0.5405405405405405,0.8818818818818818,0.366178907162914,1.0,0.1599926748870712
0.430572929697273,0.5350350350350349,0.8015515515515514,0.6212306189720425,1.0,0.2523047944608194
0.5076307230422819,0.699199199199199,0.4456956956956956,0.5055391806337967,0.5078587997279244,0.4799937213317753
0.1303477608206155,0.6969469469469468,0.771021021021021,0.4762387289184994,0.49096569405445,0.5938678340338699
0.9984988741556168,0.6809309309309308,0.0,1.5696670561837767e-05,0.9817936062228578,0.4339675950956625
0.5914435826870154,0.4584584584584584,0.7012012012012012,0.396182220904477,0.0,0.9120062089052444
0.4801100825619215,0.7429929929929928,0.6156156156156156,0.0,0.2972618030242252,0.5057990477353193
0.5203902927195397,0.5277777777777777,0.7527527527527527,0.5018609274988227,0.4951933306590858,0.4997401328984774
0.451088316237178,0.6098598598598598,0.7645145145145145,0.5700612170151909,0.6126393079512357,1.0
0.4681010758068553,0.678178178178178,0.0,1.0,0.0,0.7921795699112266
0.5201401050788093,0.5277777777777777,0.7522522522522521,0.5018312782322061,0.4951462406474005,0.4996651376946823
0.5206404803602703,0.5277777777777777,0.7525025025025025,0.5018609274988227,0.4952090273296475,0.4998168721767794
0.5206404803602703,0.5275275275275274,0.7522522522522521,0.5018469749027679,0.495254373266826,0.4997558295690392
0.5201401050788093,0.5275275275275274,0.7517517517517517,0.5017859322950277,0.4951933306590858,0.4996790902907372
0.4603452589442083,0.7567567567567566,0.5455455455455456,1.0,0.7599037270872211,0.5596543244327398
0.9106830122591946,0.5045045045045045,0.7329829829829829,0.4940945637197621,0.4852887315346111,0.0
0.5494120590442834,0.5260260260260259,0.6619119119119119,0.003829987617071,0.3126445401747563,0.4249332891501125
0.9189392044033028,0.4491991991991991,0.7364864864864864,0.5109266267854963,0.4679369342658318,0.2927306974553953
0.4756067050287717,0.5010010010010009,0.7527527527527527,0.4955892355721436,0.4718890070983832,0.0
0.5203902927195397,0.5272772772772771,0.752002002002002,0.5018155815616443,0.4952386765962642,0.4997104836318607
0.5436577433074807,0.6864364364364364,0.7572572572572571,0.5504822366011476,0.5922057310288296,1.0
0.5731798849136854,0.5655655655655655,0.8908908908908908,1.0,0.0,0.4717826185534646
0.5206404803602703,0.5275275275275274,0.7527527527527527,0.5017859322950277,0.495177633988524,0.4997261803024225
0.6257192894671004,0.5412912912912912,0.6886886886886887,0.4047281859881054,0.8656609170343756,0.4531035805849626
0.5206404803602703,0.5275275275275274,0.7527527527527527,0.5018469749027679,0.4951462406474005,0.4997104836318607
0.4858643982987242,0.5155155155155154,0.6268768768768769,0.5133526344245426,0.6837696426391335,0.5124073460418229
0.5198899174380787,0.5275275275275274,0.7527527527527527,0.5018312782322061,0.495254373266826,0.4997558295690392
0.5734300725544159,0.5182682682682682,0.7592592592592592,0.3227165704518897,1.0,0.081218061635593
0.5203902927195397,0.5275275275275274,0.7522522522522521,0.5018312782322061,0.4951933306590858,0.4997558295690392
0.4058043532649488,0.5560560560560559,0.7527527527527527,0.7221340495665974,0.5988890245391283,0.4896837992919057
0.1543657743307481,0.543043043043043,0.6606606606606606,0.5888012975914331,0.9781467464290076,0.3604112527687182
0.0,1.0,0.4146646646646647,0.0,0.0793396933917017,0.3483248164361582
0.3540155116337254,0.569069069069069,0.6896896896896896,0.6711320787624047,0.6706297853044282,0.3773200551127544
0.3465098824118089,0.5943443443443442,0.8355855855855856,0.4627029666707362,0.7660079878612414,0.4020266145769747
0.5296472354265701,0.4179179179179178,0.7542542542542542,0.4924760625773933,1.0,0.238172558731709
0.5586690017513136,0.6373873873873873,0.3863863863863864,0.3734900674956834,0.4608716884385301,0.513474719640023
1.0000000000000002,0.8375875875875876,0.0,0.0,1.0,0.0398451261837906
0.5186389792344259,0.5090090090090089,0.7765265265265264,0.8059298533233339,0.5458429984128922,0.5438582416240821
0.4766074555916939,0.7259759759759759,0.5035035035035035,1.0,0.5576399183773131,0.5130317247152798
0.5519139354515888,0.6516516516516515,0.7239739739739739,0.4609170343757085,0.4851823429896925,0.0
