Ax,Ay,Az,Gx,Gy,Gz,Label
0.5201401050788093,0.5285285285285284,0.7535035035035034,0.5018609274988227,0.49513228805134557,0.4997558295690392,0
0.5201401050788093,0.5275275275275274,0.7522522522522521,0.5017248896872875,0.4951619373179622,0.4996790902907372,0
0.5206404803602703,0.5285285285285284,0.7525025025025025,0.5018469749027679,0.4951933306590858,0.4997558295690392,0
0.5198899174380787,0.5277777777777777,0.752002002002002,0.5018923208399463,0.4952229799257024,0.4996337443535588,0
0.5206404803602703,0.5272772772772771,0.7532532532532532,0.5017859322950277,0.4951619373179622,0.4998325688473412,0
0.5206404803602703,0.527027027027027,0.752002002002002,0.5018016289655894,0.4952090273296475,0.499694786961299,0
0.5201401050788093,0.5275275275275274,0.7522522522522521,0.5018312782322061,0.495177633988524,0.4997558295690392,0
0.5198899174380787,0.5272772772772771,0.752002002002002,0.5019080175105081,0.4952090273296475,0.4997401328984774,0
0.5203902927195397,0.5277777777777777,0.7532532532532532,0.5018312782322061,0.495177633988524,0.499694786961299,0
0.5203902927195397,0.5272772772772771,0.7517517517517517,0.5018016289655894,0.4951933306590858,0.4997261803024225,0
0.5203902927195397,0.5272772772772771,0.7525025025025025,0.5018312782322061,0.4952090273296475,0.4996790902907372,0
0.5201401050788093,0.528028028028028,0.7525025025025025,0.5018469749027679,0.4952386765962642,0.4997401328984774,0
0.5203902927195397,0.5277777777777777,0.7530030030030029,0.5019219701065629,0.4951462406474005,0.4997401328984774,0
0.5206404803602703,0.5272772772772771,0.7522522522522521,0.5018312782322061,0.495177633988524,0.49971048363186077,0
0.5203902927195397,0.5275275275275274,0.7522522522522521,0.5018469749027679,0.4952090273296475,0.49971048363186077,0
0.5201401050788093,0.5275275275275274,0.7525025025025025,0.5019080175105081,0.4951619373179622,0.4997854788356559,0
0.5203902927195397,0.5277777777777777,0.7527527527527527,0.5019219701065629,0.4951165913807838,0.499694786961299,0
0.5203902927195397,0.5275275275275274,0.7527527527527527,0.5017859322950277,0.4952090273296475,0.4997854788356559,0
0.5203902927195397,0.5275275275275274,0.7522522522522521,0.5018609274988227,0.4952229799257024,0.49977152623960097,0
0.5203902927195397,0.5275275275275274,0.7527527527527527,0.5018312782322061,0.49513228805134557,0.49971048363186077,0
0.5201401050788093,0.5275275275275274,0.7525025025025025,0.5018016289655894,0.495100894710222,0.49977152623960097,0
0.5203902927195397,0.5275275275275274,0.7525025025025025,0.5018155815616443,0.4951619373179622,0.4996790902907372,0
0.5206404803602703,0.5277777777777777,0.7527527527527527,0.5019080175105081,0.4952229799257024,0.4997401328984774,0
0.5203902927195397,0.5275275275275274,0.7527527527527527,0.5018312782322061,0.4951619373179622,0.4997261803024225,0
0.5203902927195397,0.5275275275275274,0.7525025025025025,0.5018469749027679,0.4952090273296475,0.499694786961299,0
0.5203902927195397,0.5277777777777777,0.7525025025025025,0.5018016289655894,0.4952090273296475,0.4997558295690392,0
0.5203902927195397,0.5277777777777777,0.7525025025025025,0.5017859322950277,0.4951619373179622,0.4997401328984774,0
0.5203902927195397,0.5277777777777777,0.7527527527527527,0.5018766241693845,0.49513228805134557,0.4998325688473412,0
0.5203902927195397,0.528028028028028,0.7527527527527527,0.5017859322950277,0.4952386765962642,0.4996790902907372,0
0.5203902927195397,0.5272772772772771,0.752002002002002,0.5018469749027679,0.4952229799257024,0.4997854788356559,0
0.5203902927195397,0.5275275275275274,0.7527527527527527,0.5017405863578492,0.495177633988524,0.499694786961299,0
0.5206404803602703,0.5277777777777777,0.7525025025025025,0.5018923208399463,0.4951619373179622,0.4997401328984774,0
0.5203902927195397,0.5275275275275274,0.7530030030030029,0.5018609274988227,0.4951619373179622,0.499694786961299,0
0.5206404803602703,0.5275275275275274,0.7522522522522521,0.5018609274988227,0.4951933306590858,0.49971048363186077,0
0.5203902927195397,0.5277777777777777,0.7527527527527527,0.5018766241693845,0.4952090273296475,0.4997261803024225,0
0.5206404803602703,0.5275275275275274,0.7527527527527527,0.5018155815616443,0.495177633988524,0.49977152623960097,0
0.5203902927195397,0.5275275275275274,0.7527527527527527,0.5018923208399463,0.4952386765962642,0.4996790902907372,0
0.5201401050788093,0.5275275275275274,0.7525025025025025,0.5019080175105081,0.495177633988524,0.4998011755062176,0
0.5203902927195397,0.5275275275275274,0.7525025025025025,0.5018766241693845,0.4952090273296475,0.4997854788356559,0
0.5203902927195397,0.5275275275275274,0.7527527527527527,0.5018609274988227,0.4951933306590858,0.499694786961299,0
0.5203902927195397,0.5277777777777777,0.7530030030030029,0.5018469749027679,0.4952229799257024,0.4997558295690392,0
0.5206404803602703,0.5272772772772771,0.7522522522522521,0.5018609274988227,0.4952090273296475,0.49977152623960097,0
0.5206404803602703,0.5275275275275274,0.7530030030030029,0.5018766241693845,0.4952229799257024,0.49971048363186077,0
0.5203902927195397,0.5275275275275274,0.7525025025025025,0.5018766241693845,0.49513228805134557,0.4997558295690392,0
0.5206404803602703,0.5277777777777777,0.7527527527527527,0.5018312782322061,0.4951165913807838,0.49977152623960097,0
0.5203902927195397,0.5275275275275274,0.7527527527527527,0.5018312782322061,0.4951933306590858,0.4996337443535588,0
0.5203902927195397,0.5277777777777777,0.7522522522522521,0.5018469749027679,0.4951165913807838,0.49971048363186077,0
0.5206404803602703,0.5275275275275274,0.7527527527527527,0.5018312782322061,0.495177633988524,0.4997558295690392,0
0.5201401050788093,0.5275275275275274,0.7525025025025025,0.5017859322950277,0.4952386765962642,0.4997558295690392,0
0.5203902927195397,0.5275275275275274,0.7522522522522521,0.5018312782322061,0.4952386765962642,0.4997854788356559,0
0.5198899174380787,0.5277777777777777,0.7522522522522521,0.5018469749027679,0.495177633988524,0.4997558295690392,0
0.5203902927195397,0.5275275275275274,0.7527527527527527,0.5018469749027679,0.4951165913807838,0.4997401328984774,0
0.5203902927195397,0.5277777777777777,0.7522522522522521,0.5018312782322061,0.4951462406474005,0.49977152623960097,0
0.5203902927195397,0.5275275275275274,0.752002002002002,0.5018609274988227,0.4952090273296475,0.4997261803024225,0
0.5201401050788093,0.5275275275275274,0.7522522522522521,0.5018766241693845,0.4951933306590858,0.49977152623960097,0
0.5206404803602703,0.5275275275275274,0.7527527527527527,0.5018016289655894,0.495177633988524,0.499694786961299,0
0.5203902927195397,0.5275275275275274,0.7525025025025025,0.5018016289655894,0.4951933306590858,0.4997401328984774,0
0.5203902927195397,0.5272772772772771,0.7525025025025025,0.5018016289655894,0.495177633988524,0.4997558295690392,0
0.5203902927195397,0.5275275275275274,0.7522522522522521,0.5017859322950277,0.4952229799257024,0.4997558295690392,0
0.5201401050788093,0.5277777777777777,0.7527527527527527,0.5018766241693845,0.4951165913807838,0.49971048363186077,0
0.5206404803602703,0.5275275275275274,0.7525025025025025,0.5018469749027679,0.4951619373179622,0.499694786961299,0
0.5201401050788093,0.5275275275275274,0.7522522522522521,0.5018155815616443,0.4951462406474005,0.4996790902907372,0
0.5201401050788093,0.5272772772772771,0.7522522522522521,0.5018609274988227,0.4952386765962642,0.49964944102412057,0
0.5203902927195397,0.5275275275275274,0.7525025025025025,0.5018155815616443,0.495177633988524,0.499694786961299,0
0.5203902927195397,0.5277777777777777,0.7525025025025025,0.5018609274988227,0.49513228805134557,0.4997558295690392,0
0.5208906680010009,0.5275275275275274,0.7527527527527527,0.5018469749027679,0.4951933306590858,0.499694786961299,0
0.5198899174380787,0.5272772772772771,0.7522522522522521,0.5018155815616443,0.4951619373179622,0.4997558295690392,0
0.5211408556417314,0.5272772772772771,0.7527527527527527,0.5018609274988227,0.4951933306590858,0.49977152623960097,0
0.5203902927195397,0.5277777777777777,0.7527527527527527,0.5018312782322061,0.495100894710222,0.499694786961299,0
0.5206404803602703,0.5275275275275274,0.7525025025025025,0.5017545389539041,0.495254373266826,0.49977152623960097,0
0.5198899174380787,0.5277777777777777,0.752002002002002,0.5018155815616443,0.4951462406474005,0.4997261803024225,0
0.5201401050788093,0.5277777777777777,0.7530030030030029,0.5018609274988227,0.4951619373179622,0.4997558295690392,0
0.5211408556417314,0.528028028028028,0.7527527527527527,0.5019219701065629,0.4952229799257024,0.4997558295690392,0
0.5201401050788093,0.5277777777777777,0.7525025025025025,0.5018766241693845,0.4951462406474005,0.499694786961299,0
0.5208906680010009,0.5272772772772771,0.7525025025025025,0.5018016289655894,0.4951933306590858,0.49971048363186077,0
0.5198899174380787,0.5275275275275274,0.7525025025025025,0.5018609274988227,0.4952229799257024,0.49971048363186077,0
0.5201401050788093,0.5275275275275274,0.7530030030030029,0.5019080175105081,0.495177633988524,0.49971048363186077,0
0.5203902927195397,0.5272772772772771,0.7525025025025025,0.5018609274988227,0.4951933306590858,0.4997854788356559,0
0.5203902927195397,0.5272772772772771,0.752002002002002,0.5018312782322061,0.4952090273296475,0.499694786961299,0
0.5211408556417314,0.527027027027027,0.7522522522522521,0.5018923208399463,0.4952683258628809,0.4997854788356559,0
0.5203902927195397,0.5277777777777777,0.7527527527527527,0.5019219701065629,0.4951619373179622,0.49971048363186077,0
0.5198899174380787,0.527027027027027,0.7525025025025025,0.5018016289655894,0.495177633988524,0.4997261803024225,0
0.5203902927195397,0.5275275275275274,0.752002002002002,0.5018766241693845,0.4952229799257024,0.4996337443535588,0
0.5206404803602703,0.5272772772772771,0.752002002002002,0.5018609274988227,0.4952840225334426,0.499694786961299,0
0.5201401050788093,0.528028028028028,0.7530030030030029,0.5018609274988227,0.495177633988524,0.49977152623960097,0
0.5198899174380787,0.5275275275275274,0.7525025025025025,0.5018766241693845,0.4952090273296475,0.4997558295690392,0
0.5201401050788093,0.5275275275275274,0.7527527527527527,0.5018155815616443,0.4952229799257024,0.4997854788356559,0
0.5203902927195397,0.5275275275275274,0.7525025025025025,0.5018766241693845,0.495177633988524,0.4997854788356559,0
0.5206404803602703,0.528028028028028,0.7530030030030029,0.5018923208399463,0.4951165913807838,0.49977152623960097,0
0.5201401050788093,0.5275275275275274,0.7522522522522521,0.5018312782322061,0.4952386765962642,0.4997261803024225,0
0.5203902927195397,0.5275275275275274,0.7525025025025025,0.5018312782322061,0.495254373266826,0.4996651376946823,0
0.5208906680010009,0.527027027027027,0.7525025025025025,0.5018312782322061,0.49513228805134557,0.4996651376946823,0
0.5208906680010009,0.5275275275275274,0.7525025025025025,0.5018766241693845,0.4952386765962642,0.49971048363186077,0
0.5208906680010009,0.5282782782782782,0.752002002002002,0.5017859322950277,0.4951933306590858,0.49964944102412057,0
0.5198899174380787,0.5272772772772771,0.752002002002002,0.5018155815616443,0.4952840225334426,0.49971048363186077,0
0.5203902927195397,0.5277777777777777,0.7522522522522521,0.5018312782322061,0.4951933306590858,0.4996790902907372,0
0.5206404803602703,0.5277777777777777,0.7530030030030029,0.5018312782322061,0.495177633988524,0.4997401328984774,0
0.5208906680010009,0.5275275275275274,0.7532532532532532,0.5017702356244659,0.4951462406474005,0.4997401328984774,0
0.5198899174380787,0.5272772772772771,0.752002002002002,0.5018312782322061,0.4952229799257024,0.4997401328984774,0
0.5206404803602703,0.5277777777777777,0.7522522522522521,0.5018312782322061,0.4951619373179622,0.4996023510124353,0
0.5206404803602703,0.5275275275275274,0.7527527527527527,0.5018016289655894,0.49513228805134557,0.4997558295690392,0
0.5206404803602703,0.5277777777777777,0.7527527527527527,0.5018016289655894,0.495100894710222,0.4997401328984774,0
0.5203902927195397,0.5275275275275274,0.7522522522522521,0.5018766241693845,0.4951619373179622,0.4997401328984774,0
0.5206404803602703,0.528028028028028,0.7527527527527527,0.5018155815616443,0.495254373266826,0.4997261803024225,0
0.5208906680010009,0.5272772772772771,0.752002002002002,0.5018766241693845,0.4952683258628809,0.4997401328984774,0
0.5203902927195397,0.5295295295295295,0.7532532532532532,0.5018016289655894,0.4951619373179622,0.4997261803024225,0
0.5198899174380787,0.5272772772772771,0.7525025025025025,0.5018469749027679,0.4952386765962642,0.49971048363186077,0
0.5198899174380787,0.5267767767767767,0.7527527527527527,0.5018766241693845,0.4951165913807838,0.4998325688473412,0
0.5198899174380787,0.5290290290290289,0.7527527527527527,0.5018469749027679,0.4951619373179622,0.499694786961299,0
0.5211408556417314,0.5277777777777777,0.7527527527527527,0.5017545389539041,0.495100894710222,0.49977152623960097,0
0.5206404803602703,0.5267767767767767,0.752002002002002,0.5018609274988227,0.4951462406474005,0.499694786961299,0
0.5201401050788093,0.5277777777777777,0.7527527527527527,0.5018312782322061,0.4952090273296475,0.4997261803024225,0
0.5198899174380787,0.5275275275275274,0.7530030030030029,0.5018766241693845,0.495100894710222,0.49971048363186077,0
0.5203902927195397,0.5275275275275274,0.7522522522522521,0.5018469749027679,0.4951619373179622,0.49977152623960097,0
0.5211408556417314,0.5275275275275274,0.7517517517517517,0.5018469749027679,0.4951619373179622,0.4996651376946823,0
0.5203902927195397,0.5272772772772771,0.752002002002002,0.5018469749027679,0.495177633988524,0.499694786961299,0
0.5203902927195397,0.5275275275275274,0.7530030030030029,0.5018609274988227,0.4951165913807838,0.49971048363186077,0
0.5203902927195397,0.5277777777777777,0.7525025025025025,0.5017859322950277,0.4951933306590858,0.49977152623960097,0
0.5208906680010009,0.5277777777777777,0.7527527527527527,0.5018312782322061,0.4951933306590858,0.4997261803024225,0
0.5206404803602703,0.5275275275275274,0.752002002002002,0.5018469749027679,0.4952229799257024,0.49964944102412057,0
0.5201401050788093,0.5277777777777777,0.7530030030030029,0.5018312782322061,0.4951462406474005,0.4997854788356559,0
0.5201401050788093,0.5272772772772771,0.7517517517517517,0.5017859322950277,0.4952229799257024,0.49964944102412057,0
0.5203902927195397,0.5275275275275274,0.7525025025025025,0.5018469749027679,0.49513228805134557,0.49971048363186077,0
0.5208906680010009,0.5275275275275274,0.7522522522522521,0.5018609274988227,0.4951933306590858,0.4997261803024225,0
0.5203902927195397,0.5275275275275274,0.7527527527527527,0.5018155815616443,0.495177633988524,0.4997401328984774,0
0.5201401050788093,0.5275275275275274,0.752002002002002,0.5018312782322061,0.4951619373179622,0.4997558295690392,0
0.5206404803602703,0.5275275275275274,0.752002002002002,0.5019219701065629,0.4952090273296475,0.499694786961299,0
0.5206404803602703,0.5277777777777777,0.7527527527527527,0.5018016289655894,0.4951933306590858,0.4997261803024225,0
0.5201401050788093,0.5275275275275274,0.7525025025025025,0.5018766241693845,0.4952090273296475,0.4996790902907372,0
0.5201401050788093,0.5277777777777777,0.7522522522522521,0.5018016289655894,0.4952386765962642,0.4996790902907372,0
0.5203902927195397,0.5275275275275274,0.7525025025025025,0.5018312782322061,0.495177633988524,0.49964944102412057,0
0.5206404803602703,0.5275275275275274,0.7525025025025025,0.5018155815616443,0.4952229799257024,0.4996651376946823,0
0.5201401050788093,0.5277777777777777,0.7525025025025025,0.5018155815616443,0.4952090273296475,0.4998011755062176,0
0.5201401050788093,0.528028028028028,0.7527527527527527,0.5018469749027679,0.495177633988524,0.49971048363186077,0
0.5201401050788093,0.5275275275275274,0.7522522522522521,0.5018766241693845,0.4950851980396603,0.4997401328984774,0
0.5206404803602703,0.5275275275275274,0.7527527527527527,0.5018312782322061,0.4951462406474005,0.4997558295690392,0
0.5206404803602703,0.5277777777777777,0.7525025025025025,0.5019080175105081,0.495177633988524,0.49971048363186077,0
0.5203902927195397,0.5275275275275274,0.7527527527527527,0.5018312782322061,0.49513228805134557,0.49971048363186077,0
0.5201401050788093,0.5275275275275274,0.7522522522522521,0.5018609274988227,0.4951462406474005,0.49977152623960097,0
0.5203902927195397,0.5275275275275274,0.7527527527527527,0.5018923208399463,0.4951619373179622,0.4997558295690392,0
0.5203902927195397,0.528028028028028,0.7525025025025025,0.5019080175105081,0.495177633988524,0.4997261803024225,0
0.5203902927195397,0.5282782782782782,0.7525025025025025,0.5018609274988227,0.4951619373179622,0.4998011755062176,0
0.5201401050788093,0.5272772772772771,0.7525025025025025,0.5018155815616443,0.4952090273296475,0.4997261803024225,0
0.5198899174380787,0.5277777777777777,0.7525025025025025,0.5018469749027679,0.49513228805134557,0.4997558295690392,0
0.5206404803602703,0.5240240240240239,0.7517517517517517,0.5019987093848649,0.4951165913807838,0.49971048363186077,0
0.5208906680010009,0.5267767767767767,0.7525025025025025,0.5019219701065629,0.4951165913807838,0.4998011755062176,0
0.5206404803602703,0.5267767767767767,0.7507507507507507,0.5016934963461639,0.4952997192040044,0.49971048363186077,0
0.519139354515887,0.5265265265265264,0.7527527527527527,0.5018016289655894,0.4950555487730436,0.4997854788356559,0
0.5188891668751565,0.5275275275275274,0.7522522522522521,0.5016777996756021,0.4954514536861015,0.4997401328984774,0
0.5208906680010009,0.528028028028028,0.7527527527527527,0.5018766241693845,0.4952229799257024,0.4997401328984774,0
0.5216412309231925,0.5282782782782782,0.7522522522522521,0.5019376667771247,0.4952229799257024,0.49971048363186077,0
0.5188891668751565,0.5297797797797796,0.7527527527527527,0.5018609274988227,0.495254373266826,0.4996023510124353,0
0.5211408556417314,0.5292792792792792,0.7522522522522521,0.5018016289655894,0.4951462406474005,0.49958839841638036,0
0.519139354515887,0.5325325325325324,0.7540040040040039,0.5019987093848649,0.4951165913807838,0.49971048363186077,0
0.5198899174380787,0.5272772772772771,0.752002002002002,0.5017248896872875,0.4953764584823064,0.499618047682997,0
0.5201401050788093,0.5297797797797796,0.7525025025025025,0.5019376667771247,0.4951462406474005,0.49977152623960097,0
0.5193895421566176,0.5285285285285284,0.7522522522522521,0.5019376667771247,0.4952840225334426,0.499694786961299,0
0.5208906680010009,0.5260260260260259,0.7522522522522521,0.5018016289655894,0.4952090273296475,0.4997261803024225,0
0.5211408556417314,0.5277777777777777,0.752002002002002,0.5018016289655894,0.4952386765962642,0.4997854788356559,0
0.5206404803602703,0.5272772772772771,0.752002002002002,0.5019080175105081,0.4951933306590858,0.4997261803024225,0
0.5198899174380787,0.527027027027027,0.7525025025025025,0.5018312782322061,0.4952386765962642,0.499694786961299,0
0.5203902927195397,0.5285285285285284,0.7527527527527527,0.5018155815616443,0.495100894710222,0.4997401328984774,0
0.5206404803602703,0.5272772772772771,0.7517517517517517,0.5018609274988227,0.4952683258628809,0.4997401328984774,0
0.5206404803602703,0.5272772772772771,0.752002002002002,0.5018016289655894,0.4953154158745662,0.4997261803024225,0
0.5203902927195397,0.5282782782782782,0.7532532532532532,0.5018155815616443,0.4951165913807838,0.4997261803024225,0
0.5201401050788093,0.5275275275275274,0.7527527527527527,0.5018923208399463,0.4951165913807838,0.4997558295690392,0
0.5206404803602703,0.5277777777777777,0.7525025025025025,0.5018155815616443,0.4951619373179622,0.4997854788356559,0
0.5206404803602703,0.5275275275275274,0.7525025025025025,0.5017702356244659,0.4952683258628809,0.4997854788356559,0
0.5206404803602703,0.5272772772772771,0.7525025025025025,0.5018469749027679,0.4951933306590858,0.499694786961299,0
0.5201401050788093,0.5275275275275274,0.7525025025025025,0.5018469749027679,0.4952229799257024,0.499694786961299,0
0.5203902927195397,0.5277777777777777,0.7525025025025025,0.5019533634476865,0.4951619373179622,0.49971048363186077,0
0.5208906680010009,0.5272772772772771,0.7522522522522521,0.5018016289655894,0.4952386765962642,0.4996790902907372,0
0.5206404803602703,0.5275275275275274,0.7527527527527527,0.5018609274988227,0.4952229799257024,0.4997401328984774,0
0.5203902927195397,0.5275275275275274,0.7527527527527527,0.5018016289655894,0.4952090273296475,0.49971048363186077,0
0.5203902927195397,0.5275275275275274,0.7525025025025025,0.5018312782322061,0.4952386765962642,0.4997261803024225,0
0.5206404803602703,0.5275275275275274,0.7522522522522521,0.5018469749027679,0.4951933306590858,0.4997558295690392,0
0.5208906680010009,0.5277777777777777,0.7527527527527527,0.5019080175105081,0.495177633988524,0.4996790902907372,0
0.5206404803602703,0.5277777777777777,0.7527527527527527,0.5018766241693845,0.495177633988524,0.4997261803024225,0
0.5201401050788093,0.5275275275275274,0.7525025025025025,0.5018923208399463,0.4952229799257024,0.4997854788356559,0
0.5206404803602703,0.5275275275275274,0.7522522522522521,0.5018469749027679,0.4951462406474005,0.4997401328984774,0
0.5206404803602703,0.5275275275275274,0.7527527527527527,0.5018312782322061,0.4952090273296475,0.49971048363186077,0
0.5206404803602703,0.528028028028028,0.7527527527527527,0.5018609274988227,0.495100894710222,0.4997261803024225,0
0.5201401050788093,0.5272772772772771,0.7522522522522521,0.5017859322950277,0.4952683258628809,0.4997261803024225,0
0.5206404803602703,0.5275275275275274,0.7525025025025025,0.5018469749027679,0.495177633988524,0.4997854788356559,0
0.5206404803602703,0.5275275275275274,0.7525025025025025,0.5018312782322061,0.4952386765962642,0.49977152623960097,0
0.5208906680010009,0.5275275275275274,0.7527527527527527,0.5018312782322061,0.4952090273296475,0.4997401328984774,0
0.5203902927195397,0.5275275275275274,0.7522522522522521,0.5018469749027679,0.4952386765962642,0.4997558295690392,0
0.5206404803602703,0.5277777777777777,0.7527527527527527,0.5018609274988227,0.4950851980396603,0.49977152623960097,0
0.5206404803602703,0.5275275275275274,0.7525025025025025,0.5019219701065629,0.4952386765962642,0.49971048363186077,0
0.5206404803602703,0.5277777777777777,0.7527527527527527,0.5018609274988227,0.4951462406474005,0.49971048363186077,0
0.5201401050788093,0.5275275275275274,0.752002002002002,0.5018469749027679,0.4952090273296475,0.4997558295690392,0
0.5198899174380787,0.5277777777777777,0.7530030030030029,0.5018766241693845,0.4952229799257024,0.4998011755062176,0
0.5206404803602703,0.5275275275275274,0.7527527527527527,0.5018609274988227,0.4952386765962642,0.499694786961299,0
0.5203902927195397,0.5275275275275274,0.7525025025025025,0.5018155815616443,0.4951619373179622,0.4997401328984774,0
0.5203902927195397,0.5275275275275274,0.7525025025025025,0.5018016289655894,0.495177633988524,0.4997261803024225,0
0.5203902927195397,0.5275275275275274,0.752002002002002,0.5018155815616443,0.4952386765962642,0.49977152623960097,0
0.5203902927195397,0.5277777777777777,0.7530030030030029,0.5018016289655894,0.4951462406474005,0.4997261803024225,0
0.5206404803602703,0.5277777777777777,0.7522522522522521,0.5018155815616443,0.4951933306590858,0.499694786961299,0
0.5203902927195397,0.5275275275275274,0.752002002002002,0.5018016289655894,0.4951933306590858,0.4997261803024225,0
0.5201401050788093,0.5275275275275274,0.752002002002002,0.5019080175105081,0.4952386765962642,0.4997261803024225,0
0.5203902927195397,0.5275275275275274,0.7530030030030029,0.5018469749027679,0.49513228805134557,0.4997854788356559,0
0.5206404803602703,0.5272772772772771,0.7522522522522521,0.5018766241693845,0.4952229799257024,0.49971048363186077,0
0.5206404803602703,0.5275275275275274,0.7525025025025025,0.5018469749027679,0.495177633988524,0.49971048363186077,0
0.5203902927195397,0.5275275275275274,0.7522522522522521,0.5018312782322061,0.4951619373179622,0.4997558295690392,0
0.5206404803602703,0.5275275275275274,0.7530030030030029,0.5019080175105081,0.4951933306590858,0.49977152623960097,0
0.5203902927195397,0.5275275275275274,0.7522522522522521,0.5018469749027679,0.4952229799257024,0.49971048363186077,0
0.5203902927195397,0.5275275275275274,0.7522522522522521,0.5018923208399463,0.495254373266826,0.4997558295690392,0
0.5203902927195397,0.5275275275275274,0.7525025025025025,0.5018312782322061,0.4952229799257024,0.4997401328984774,0
0.5203902927195397,0.5277777777777777,0.7530030030030029,0.5017859322950277,0.49513228805134557,0.4997261803024225,0
0.5203902927195397,0.5275275275275274,0.7522522522522521,0.5018609274988227,0.4952229799257024,0.4997558295690392,0
0.5203902927195397,0.5275275275275274,0.7522522522522521,0.5018609274988227,0.4952683258628809,0.49971048363186077,0
0.5203902927195397,0.5275275275275274,0.7522522522522521,0.5017859322950277,0.4951165913807838,0.49977152623960097,0
0.5203902927195397,0.5277777777777777,0.7530030030030029,0.5018469749027679,0.4951933306590858,0.4996790902907372,0
0.5206404803602703,0.5277777777777777,0.7532532532532532,0.5018016289655894,0.4951933306590858,0.49971048363186077,0
0.5201401050788093,0.5272772772772771,0.752002002002002,0.5018312782322061,0.4952386765962642,0.49971048363186077,0
0.5206404803602703,0.5275275275275274,0.7527527527527527,0.5018312782322061,0.4951462406474005,0.49971048363186077,0
0.5203902927195397,0.5275275275275274,0.7527527527527527,0.5019080175105081,0.4952683258628809,0.4996651376946823,0
0.5203902927195397,0.5277777777777777,0.7530030030030029,0.5018609274988227,0.4951619373179622,0.4997854788356559,0
0.5203902927195397,0.5275275275275274,0.752002002002002,0.5018469749027679,0.4952090273296475,0.49971048363186077,0
0.5208906680010009,0.5275275275275274,0.7525025025025025,0.5018469749027679,0.4952229799257024,0.4998779147845196,0
0.5203902927195397,0.5275275275275274,0.7522522522522521,0.5018016289655894,0.4951933306590858,0.4997401328984774,0
0.5206404803602703,0.5277777777777777,0.7525025025025025,0.5018469749027679,0.49513228805134557,0.4997558295690392,0
0.5201401050788093,0.5277777777777777,0.7525025025025025,0.5018312782322061,0.4951933306590858,0.49971048363186077,0
0.5203902927195397,0.5277777777777777,0.7525025025025025,0.5018923208399463,0.49513228805134557,0.499694786961299,0
0.5203902927195397,0.5277777777777777,0.7525025025025025,0.5018469749027679,0.4952090273296475,0.4997854788356559,0
0.5203902927195397,0.5277777777777777,0.7527527527527527,0.5018155815616443,0.4951165913807838,0.4997854788356559,0
0.5203902927195397,0.5272772772772771,0.7522522522522521,0.5018155815616443,0.4952997192040044,0.4996790902907372,0
0.5203902927195397,0.5275275275275274,0.7527527527527527,0.5017702356244659,0.4951462406474005,0.4996651376946823,0
0.5206404803602703,0.5275275275275274,0.7525025025025025,0.5017545389539041,0.4952229799257024,0.4997401328984774,0
0.5206404803602703,0.5275275275275274,0.7525025025025025,0.5018016289655894,0.495177633988524,0.4997558295690392,0
0.5201401050788093,0.5277777777777777,0.7525025025025025,0.5018016289655894,0.4952229799257024,0.4996790902907372,0
0.5203902927195397,0.5275275275275274,0.7527527527527527,0.5018923208399463,0.4951165913807838,0.4996790902907372,0
0.5201401050788093,0.5275275275275274,0.7530030030030029,0.5018155815616443,0.4951462406474005,0.4997261803024225,0
0.5203902927195397,0.5275275275275274,0.7522522522522521,0.5018016289655894,0.4952090273296475,0.49971048363186077,0
0.5203902927195397,0.5275275275275274,0.7522522522522521,0.5017702356244659,0.4951619373179622,0.4997558295690392,0
0.5203902927195397,0.5275275275275274,0.7522522522522521,0.5018766241693845,0.4951619373179622,0.4998482655179029,0
0.5203902927195397,0.528028028028028,0.7527527527527527,0.5018155815616443,0.4951619373179622,0.4996790902907372,0
0.5206404803602703,0.5277777777777777,0.7527527527527527,0.5018312782322061,0.4951933306590858,0.4997261803024225,0
0.5203902927195397,0.5275275275275274,0.7522522522522521,0.5018312782322061,0.495177633988524,0.4997854788356559,0
0.5201401050788093,0.5275275275275274,0.752002002002002,0.5019376667771247,0.4951462406474005,0.4998011755062176,0
0.5203902927195397,0.5275275275275274,0.7527527527527527,0.5018016289655894,0.4951619373179622,0.4997558295690392,0
0.5203902927195397,0.5275275275275274,0.7525025025025025,0.5018609274988227,0.4952229799257024,0.4998011755062176,0
0.5203902927195397,0.5275275275275274,0.7525025025025025,0.5018016289655894,0.4952229799257024,0.499694786961299,0
0.5203902927195397,0.5275275275275274,0.7525025025025025,0.5018016289655894,0.4951462406474005,0.4997401328984774,0
0.5206404803602703,0.5275275275275274,0.7527527527527527,0.5018155815616443,0.4952090273296475,0.4997401328984774,0
0.5206404803602703,0.5275275275275274,0.7525025025025025,0.5018469749027679,0.4951462406474005,0.4997558295690392,0
0.5203902927195397,0.5275275275275274,0.7527527527527527,0.5019219701065629,0.4952229799257024,0.4997401328984774,0
0.5201401050788093,0.5272772772772771,0.7525025025025025,0.5017859322950277,0.495177633988524,0.49977152623960097,0
0.5201401050788093,0.5277777777777777,0.7525025025025025,0.5018469749027679,0.4951619373179622,0.4996790902907372,0
0.5203902927195397,0.5277777777777777,0.7527527527527527,0.5017702356244659,0.4951165913807838,0.499694786961299,0
0.5203902927195397,0.528028028028028,0.7530030030030029,0.5018923208399463,0.4951933306590858,0.4997401328984774,0
0.5203902927195397,0.5275275275275274,0.7525025025025025,0.5018469749027679,0.4951933306590858,0.4997261803024225,0
0.5201401050788093,0.5277777777777777,0.7527527527527527,0.5019080175105081,0.4952090273296475,0.4996790902907372,0
0.5206404803602703,0.5275275275275274,0.7527527527527527,0.5018312782322061,0.4952090273296475,0.499694786961299,0
0.5203902927195397,0.5275275275275274,0.7525025025025025,0.5018766241693845,0.4952229799257024,0.4997854788356559,0
0.5203902927195397,0.5275275275275274,0.7525025025025025,0.5018312782322061,0.4952229799257024,0.4997401328984774,0
0.5203902927195397,0.5277777777777777,0.7522522522522521,0.5018469749027679,0.4951933306590858,0.4997558295690392,0
0.5203902927195397,0.5277777777777777,0.7527527527527527,0.5018766241693845,0.495177633988524,0.49971048363186077,0
0.5203902927195397,0.5277777777777777,0.7522522522522521,0.5018016289655894,0.495254373266826,0.4997558295690392,0
0.5203902927195397,0.5277777777777777,0.7525025025025025,0.5018155815616443,0.4951462406474005,0.4997854788356559,0
0.5201401050788093,0.5277777777777777,0.7522522522522521,0.5018016289655894,0.4951462406474005,0.49971048363186077,0
0.5203902927195397,0.5275275275275274,0.7527527527527527,0.5018766241693845,0.495177633988524,0.4997854788356559,0
0.5203902927195397,0.5275275275275274,0.7522522522522521,0.5018155815616443,0.4951462406474005,0.4996651376946823,0
0.5203902927195397,0.5275275275275274,0.7525025025025025,0.5018469749027679,0.4951462406474005,0.4997401328984774,0
0.5203902927195397,0.5277777777777777,0.7525025025025025,0.5018016289655894,0.4952090273296475,0.4997261803024225,0
0.5203902927195397,0.5277777777777777,0.7527527527527527,0.5018609274988227,0.4951933306590858,0.4997558295690392,0
0.5203902927195397,0.5275275275275274,0.7522522522522521,0.5018312782322061,0.4951933306590858,0.4997401328984774,0
0.5206404803602703,0.5275275275275274,0.7525025025025025,0.5018923208399463,0.495177633988524,0.4998011755062176,0
0.5203902927195397,0.5275275275275274,0.752002002002002,0.5018923208399463,0.4952386765962642,0.4997401328984774,0
0.5201401050788093,0.5275275275275274,0.7522522522522521,0.5018312782322061,0.4952229799257024,0.49971048363186077,0
0.5201401050788093,0.5277777777777777,0.7522522522522521,0.5018155815616443,0.4951933306590858,0.49964944102412057,0
0.5203902927195397,0.5275275275275274,0.7522522522522521,0.5018016289655894,0.4952386765962642,0.4996651376946823,0
0.5206404803602703,0.5275275275275274,0.7530030030030029,0.5018469749027679,0.4952229799257024,0.4997558295690392,0
0.5206404803602703,0.5277777777777777,0.7522522522522521,0.5018469749027679,0.4951462406474005,0.4997261803024225,0
0.5201401050788093,0.5275275275275274,0.7522522522522521,0.5018609274988227,0.4952229799257024,0.49977152623960097,0
0.5203902927195397,0.5275275275275274,0.7522522522522521,0.5018766241693845,0.4952386765962642,0.4997558295690392,0
0.5203902927195397,0.5277777777777777,0.7525025025025025,0.5017859322950277,0.4951933306590858,0.49971048363186077,0
0.5206404803602703,0.5275275275275274,0.752002002002002,0.5018766241693845,0.495254373266826,0.49971048363186077,0
0.5206404803602703,0.5275275275275274,0.7522522522522521,0.5018312782322061,0.4952090273296475,0.49964944102412057,0
0.5203902927195397,0.5275275275275274,0.752002002002002,0.5019080175105081,0.495254373266826,0.4997854788356559,0
0.5203902927195397,0.5275275275275274,0.7525025025025025,0.5017702356244659,0.4951933306590858,0.49971048363186077,0
0.5206404803602703,0.5275275275275274,0.7522522522522521,0.5017859322950277,0.4951933306590858,0.49971048363186077,0
0.5203902927195397,0.5277777777777777,0.7522522522522521,0.5019080175105081,0.4952229799257024,0.4997261803024225,0
0.5203902927195397,0.5275275275275274,0.7525025025025025,0.5018469749027679,0.4952229799257024,0.49964944102412057,0
0.5206404803602703,0.5275275275275274,0.7525025025025025,0.5018469749027679,0.4951165913807838,0.49971048363186077,0
0.5203902927195397,0.5277777777777777,0.7522522522522521,0.5018155815616443,0.4952090273296475,0.4997401328984774,0
0.5201401050788093,0.5277777777777777,0.7522522522522521,0.5018469749027679,0.4952229799257024,0.4996790902907372,0
0.5201401050788093,0.5272772772772771,0.7522522522522521,0.5018469749027679,0.4952386765962642,0.49971048363186077,0
0.5203902927195397,0.5277777777777777,0.7527527527527527,0.5018155815616443,0.4952090273296475,0.4997854788356559,0
0.5206404803602703,0.5277777777777777,0.752002002002002,0.5019080175105081,0.4952229799257024,0.4997261803024225,0
0.5203902927195397,0.5275275275275274,0.7522522522522521,0.5018923208399463,0.495177633988524,0.4997401328984774,0
0.5203902927195397,0.5275275275275274,0.7525025025025025,0.5018609274988227,0.4951933306590858,0.49977152623960097,0
0.5203902927195397,0.5275275275275274,0.7527527527527527,0.5018609274988227,0.4952229799257024,0.4998482655179029,0
0.5206404803602703,0.5275275275275274,0.7527527527527527,0.5018312782322061,0.4951165913807838,0.4996651376946823,0
0.5206404803602703,0.5275275275275274,0.752002002002002,0.5019533634476865,0.4951462406474005,0.4996790902907372,0
0.5206404803602703,0.5275275275275274,0.7527527527527527,0.5018609274988227,0.4951165913807838,0.49971048363186077,0
0.5203902927195397,0.5277777777777777,0.7525025025025025,0.5018766241693845,0.4952229799257024,0.4996790902907372,0
0.5203902927195397,0.5275275275275274,0.7527527527527527,0.5018609274988227,0.4952090273296475,0.49964944102412057,0
0.5203902927195397,0.5277777777777777,0.7522522522522521,0.5018923208399463,0.4951933306590858,0.4997261803024225,0
0.5206404803602703,0.5277777777777777,0.7527527527527527,0.5018609274988227,0.4952229799257024,0.49977152623960097,0
0.5203902927195397,0.5275275275275274,0.7525025025025025,0.5018766241693845,0.495177633988524,0.4997558295690392,0
0.5203902927195397,0.5275275275275274,0.7527527527527527,0.5018312782322061,0.4951462406474005,0.49977152623960097,0
0.5201401050788093,0.5275275275275274,0.752002002002002,0.5017859322950277,0.4952386765962642,0.49964944102412057,0
0.5206404803602703,0.5277777777777777,0.7530030030030029,0.5018312782322061,0.495177633988524,0.4997261803024225,0
0.5206404803602703,0.5277777777777777,0.7525025025025025,0.5017859322950277,0.4952090273296475,0.4997558295690392,0
0.5201401050788093,0.5275275275275274,0.7525025025025025,0.5018609274988227,0.4952090273296475,0.4997401328984774,0
0.5206404803602703,0.5272772772772771,0.7525025025025025,0.5018016289655894,0.49507124544360537,0.4996337443535588,0
0.5206404803602703,0.5277777777777777,0.7530030030030029,0.5018609274988227,0.4951462406474005,0.4998011755062176,0
0.5203902927195397,0.5275275275275274,0.7525025025025025,0.5018155815616443,0.4951619373179622,0.49964944102412057,0
0.5203902927195397,0.528028028028028,0.7525025025025025,0.5017859322950277,0.495177633988524,0.49964944102412057,0
0.5203902927195397,0.5277777777777777,0.7522522522522521,0.5018469749027679,0.4951619373179622,0.4996790902907372,0
0.5203902927195397,0.5275275275275274,0.752002002002002,0.5018312782322061,0.4951165913807838,0.49977152623960097,0
0.5206404803602703,0.5275275275275274,0.7527527527527527,0.5018016289655894,0.4951619373179622,0.4997401328984774,0
0.5201401050788093,0.5275275275275274,0.7522522522522521,0.5018469749027679,0.495177633988524,0.49971048363186077,0
0.5206404803602703,0.5277777777777777,0.7522522522522521,0.5018155815616443,0.4951619373179622,0.4997558295690392,0
0.5203902927195397,0.5275275275275274,0.7525025025025025,0.5018155815616443,0.4952090273296475,0.4997401328984774,0
0.5203902927195397,0.5272772772772771,0.7525025025025025,0.5017859322950277,0.495254373266826,0.4998168721767794,0
0.5203902927195397,0.5277777777777777,0.7525025025025025,0.5018155815616443,0.495177633988524,0.4997401328984774,0
0.5203902927195397,0.5275275275275274,0.7522522522522521,0.5018766241693845,0.4951933306590858,0.499694786961299,0
0.5203902927195397,0.5272772772772771,0.7525025025025025,0.5018016289655894,0.495177633988524,0.499694786961299,0
0.5203902927195397,0.528028028028028,0.7527527527527527,0.5018469749027679,0.4952229799257024,0.4997261803024225,0
0.5203902927195397,0.5275275275275274,0.7522522522522521,0.5018155815616443,0.4951619373179622,0.49977152623960097,0
0.5206404803602703,0.5275275275275274,0.7522522522522521,0.5018155815616443,0.495177633988524,0.49971048363186077,0
0.5203902927195397,0.5275275275275274,0.7527527527527527,0.5018016289655894,0.4952229799257024,0.49971048363186077,0
0.5201401050788093,0.5275275275275274,0.7525025025025025,0.5018312782322061,0.4951619373179622,0.4997854788356559,0
0.5206404803602703,0.5277777777777777,0.7522522522522521,0.5018923208399463,0.495177633988524,0.499618047682997,0
0.5206404803602703,0.5275275275275274,0.752002002002002,0.5018469749027679,0.495100894710222,0.4996790902907372,0
0.5203902927195397,0.5275275275275274,0.7527527527527527,0.5018469749027679,0.495177633988524,0.4997401328984774,0
0.5203902927195397,0.5277777777777777,0.7525025025025025,0.5018312782322061,0.4952229799257024,0.4996790902907372,0
0.5203902927195397,0.5275275275275274,0.7522522522522521,0.5018155815616443,0.49513228805134557,0.4997401328984774,0
0.5203902927195397,0.5275275275275274,0.7525025025025025,0.5018609274988227,0.4951619373179622,0.4997261803024225,0
0.5208906680010009,0.5277777777777777,0.7530030030030029,0.5018312782322061,0.4951933306590858,0.4996651376946823,0
0.5203902927195397,0.5275275275275274,0.7525025025025025,0.5018155815616443,0.4952090273296475,0.4997401328984774,0
0.5206404803602703,0.5277777777777777,0.7525025025025025,0.5019376667771247,0.4952229799257024,0.499694786961299,0
0.5201401050788093,0.5275275275275274,0.7522522522522521,0.5018016289655894,0.4952683258628809,0.499694786961299,0
0.5203902927195397,0.5275275275275274,0.7527527527527527,0.5018312782322061,0.4951462406474005,0.4996790902907372,0
0.5203902927195397,0.5277777777777777,0.7522522522522521,0.5018016289655894,0.495254373266826,0.4996790902907372,0
0.5203902927195397,0.5272772772772771,0.7527527527527527,0.5017859322950277,0.4951619373179622,0.4998482655179029,0
0.5203902927195397,0.5277777777777777,0.7525025025025025,0.5018766241693845,0.4951619373179622,0.4997261803024225,0
0.5206404803602703,0.5275275275275274,0.7525025025025025,0.5018766241693845,0.4951619373179622,0.4997401328984774,0
0.5203902927195397,0.5275275275275274,0.7525025025025025,0.5018155815616443,0.4951462406474005,0.49971048363186077,0
0.5208906680010009,0.5275275275275274,0.7522522522522521,0.5018469749027679,0.4951165913807838,0.49977152623960097,0
0.5203902927195397,0.5275275275275274,0.7525025025025025,0.5017545389539041,0.4951462406474005,0.4997854788356559,0
0.5206404803602703,0.5275275275275274,0.7527527527527527,0.5018016289655894,0.495177633988524,0.4997401328984774,0
0.5203902927195397,0.5275275275275274,0.7527527527527527,0.5018312782322061,0.4951165913807838,0.49971048363186077,0
0.5206404803602703,0.5275275275275274,0.7522522522522521,0.5018469749027679,0.4952090273296475,0.4997558295690392,0
0.5203902927195397,0.5275275275275274,0.7522522522522521,0.5018155815616443,0.4952090273296475,0.4997401328984774,0
0.5198899174380787,0.5277777777777777,0.7527527527527527,0.5018312782322061,0.49513228805134557,0.4997558295690392,0
0.5201401050788093,0.5275275275275274,0.7527527527527527,0.5018312782322061,0.4951619373179622,0.49971048363186077,0
0.5208906680010009,0.5275275275275274,0.752002002002002,0.5017859322950277,0.4952386765962642,0.4997261803024225,0
0.5201401050788093,0.5272772772772771,0.7527527527527527,0.5018155815616443,0.4952229799257024,0.4998011755062176,0
0.5201401050788093,0.5277777777777777,0.7522522522522521,0.5018312782322061,0.4951165913807838,0.49977152623960097,0
0.5203902927195397,0.5275275275275274,0.7527527527527527,0.5018469749027679,0.495177633988524,0.4997558295690392,0
0.5208906680010009,0.5275275275275274,0.7522522522522521,0.5018016289655894,0.4952229799257024,0.4997261803024225,0
0.5206404803602703,0.5275275275275274,0.7522522522522521,0.5018923208399463,0.4952090273296475,0.4997261803024225,0
0.5203902927195397,0.5275275275275274,0.7525025025025025,0.5018469749027679,0.495254373266826,0.4997558295690392,0
0.5203902927195397,0.5275275275275274,0.7525025025025025,0.5018155815616443,0.4951933306590858,0.4996790902907372,0
0.5203902927195397,0.5277777777777777,0.7525025025025025,0.5018016289655894,0.495177633988524,0.4996651376946823,0
0.5206404803602703,0.5275275275275274,0.7522522522522521,0.5018609274988227,0.4951462406474005,0.4997401328984774,0
0.5201401050788093,0.5275275275275274,0.7525025025025025,0.5017859322950277,0.4952386765962642,0.4997854788356559,0
0.5203902927195397,0.5277777777777777,0.7527527527527527,0.5018016289655894,0.4952229799257024,0.4996790902907372,0
0.5206404803602703,0.5275275275275274,0.7525025025025025,0.5018312782322061,0.49513228805134557,0.4997558295690392,0
0.5206404803602703,0.5277777777777777,0.7525025025025025,0.5018923208399463,0.495254373266826,0.4997261803024225,0
0.5201401050788093,0.5275275275275274,0.7522522522522521,0.5018312782322061,0.495177633988524,0.499694786961299,0
0.5203902927195397,0.5275275275275274,0.7532532532532532,0.5018766241693845,0.49513228805134557,0.4997401328984774,0
0.5203902927195397,0.528028028028028,0.7522522522522521,0.5017702356244659,0.4952090273296475,0.4996790902907372,0
0.5203902927195397,0.5275275275275274,0.7522522522522521,0.5018016289655894,0.495254373266826,0.4998325688473412,0
0.5206404803602703,0.5275275275275274,0.7522522522522521,0.5018923208399463,0.495177633988524,0.4997261803024225,0
0.5203902927195397,0.5275275275275274,0.7527527527527527,0.5018609274988227,0.4952229799257024,0.4997261803024225,0
0.5206404803602703,0.5277777777777777,0.7527527527527527,0.5018923208399463,0.4951933306590858,0.499694786961299,0
0.5206404803602703,0.5277777777777777,0.7527527527527527,0.5018312782322061,0.4952386765962642,0.49971048363186077,0
0.5206404803602703,0.5275275275275274,0.752002002002002,0.5018016289655894,0.49513228805134557,0.49971048363186077,0
0.5206404803602703,0.5275275275275274,0.7532532532532532,0.5018155815616443,0.49513228805134557,0.49971048363186077,0
0.5206404803602703,0.5277777777777777,0.7525025025025025,0.5018609274988227,0.4952229799257024,0.4996651376946823,0
0.5206404803602703,0.5277777777777777,0.7527527527527527,0.5018609274988227,0.49513228805134557,0.4997261803024225,0
0.5203902927195397,0.5272772772772771,0.752002002002002,0.5018609274988227,0.4951933306590858,0.4997401328984774,0
0.5208906680010009,0.5275275275275274,0.7527527527527527,0.5018609274988227,0.4951462406474005,0.4997558295690392,0
0.5206404803602703,0.5275275275275274,0.7530030030030029,0.5018923208399463,0.4951165913807838,0.4997854788356559,0
0.5203902927195397,0.5277777777777777,0.7522522522522521,0.5018766241693845,0.4951462406474005,0.4997854788356559,0
0.5203902927195397,0.5275275275275274,0.7527527527527527,0.5018155815616443,0.49513228805134557,0.4997558295690392,0
0.5206404803602703,0.5272772772772771,0.752002002002002,0.5017859322950277,0.4951619373179622,0.49971048363186077,0
0.5203902927195397,0.5275275275275274,0.7527527527527527,0.5018923208399463,0.4951462406474005,0.4997854788356559,0
0.5203902927195397,0.5275275275275274,0.7527527527527527,0.5018016289655894,0.495177633988524,0.4997401328984774,0
0.5203902927195397,0.5272772772772771,0.7522522522522521,0.5018923208399463,0.4952997192040044,0.49971048363186077,0
0.5203902927195397,0.5275275275275274,0.7522522522522521,0.5018155815616443,0.4952090273296475,0.4997261803024225,0
0.5203902927195397,0.5277777777777777,0.7527527527527527,0.5017859322950277,0.4951933306590858,0.4998168721767794,0
0.5201401050788093,0.5275275275275274,0.7522522522522521,0.5018469749027679,0.4952090273296475,0.499694786961299,0
0.5203902927195397,0.5275275275275274,0.7525025025025025,0.5018923208399463,0.4951462406474005,0.49977152623960097,0
0.5206404803602703,0.5275275275275274,0.7527527527527527,0.5018312782322061,0.4951933306590858,0.4997558295690392,0
0.5206404803602703,0.5277777777777777,0.7527527527527527,0.5018609274988227,0.4952386765962642,0.49977152623960097,0
0.5203902927195397,0.5277777777777777,0.7522522522522521,0.5018609274988227,0.4952090273296475,0.4998011755062176,0
0.5203902927195397,0.5275275275275274,0.7522522522522521,0.5018469749027679,0.4952386765962642,0.4997401328984774,0
0.5203902927195397,0.5275275275275274,0.7527527527527527,0.5018016289655894,0.495177633988524,0.499694786961299,0
0.5203902927195397,0.5277777777777777,0.7522522522522521,0.5017545389539041,0.4952386765962642,0.4997261803024225,0
0.5203902927195397,0.5275275275275274,0.7522522522522521,0.5018469749027679,0.4952090273296475,0.4997401328984774,0
0.5201401050788093,0.5275275275275274,0.7527527527527527,0.5018312782322061,0.4951462406474005,0.4996790902907372,0
0.5201401050788093,0.5275275275275274,0.752002002002002,0.5018312782322061,0.4951933306590858,0.49977152623960097,0
0.5203902927195397,0.5277777777777777,0.7525025025025025,0.5018016289655894,0.4951619373179622,0.4998482655179029,0
0.5206404803602703,0.5277777777777777,0.7522522522522521,0.5018312782322061,0.495177633988524,0.499694786961299,0
0.5203902927195397,0.5275275275275274,0.7522522522522521,0.5018155815616443,0.4951462406474005,0.4997558295690392,0
0.5206404803602703,0.5275275275275274,0.7525025025025025,0.5019219701065629,0.495177633988524,0.499694786961299,0
0.5203902927195397,0.5275275275275274,0.7525025025025025,0.5018766241693845,0.4952229799257024,0.4997558295690392,0
0.5206404803602703,0.5275275275275274,0.7527527527527527,0.5018016289655894,0.4952229799257024,0.4997261803024225,0
0.5208906680010009,0.5275275275275274,0.7525025025025025,0.5017859322950277,0.4951933306590858,0.4998011755062176,0
0.5203902927195397,0.5275275275275274,0.7522522522522521,0.5018609274988227,0.4952090273296475,0.49964944102412057,0
0.5203902927195397,0.5275275275275274,0.7527527527527527,0.5018016289655894,0.49513228805134557,0.4997401328984774,0
0.5203902927195397,0.5275275275275274,0.7525025025025025,0.5017545389539041,0.4952386765962642,0.49964944102412057,0
0.5203902927195397,0.5275275275275274,0.7530030030030029,0.5018923208399463,0.4951619373179622,0.4996651376946823,0
0.5203902927195397,0.5272772772772771,0.7525025025025025,0.5018609274988227,0.4952090273296475,0.4998168721767794,0
0.5203902927195397,0.5275275275275274,0.7522522522522521,0.5019219701065629,0.4951619373179622,0.4997558295690392,0
0.5206404803602703,0.5275275275275274,0.7525025025025025,0.5019219701065629,0.4951933306590858,0.4997261803024225,0
0.5203902927195397,0.5272772772772771,0.7525025025025025,0.5018469749027679,0.4951933306590858,0.49977152623960097,0
0.5203902927195397,0.5275275275275274,0.7522522522522521,0.5017859322950277,0.4951462406474005,0.4998011755062176,0
0.5201401050788093,0.5275275275275274,0.7522522522522521,0.5018766241693845,0.4951933306590858,0.499694786961299,0
0.5203902927195397,0.5275275275275274,0.7525025025025025,0.5018155815616443,0.4951619373179622,0.4997401328984774,0
0.5203902927195397,0.5277777777777777,0.7527527527527527,0.5018016289655894,0.4951933306590858,0.4997401328984774,0
0.5193895421566176,0.5292792792792792,0.7585085085085085,0.5020301027259885,0.4947346390637808,0.4998779147845196,0
0.521391043282462,0.5290290290290289,0.7612612612612613,0.5020597519926051,0.49470498979716415,0.4999843033294382,0
0.521391043282462,0.5275275275275274,0.7477477477477477,0.5018609274988227,0.4949788094947416,0.49958839841638036,0
0.5196397297973482,0.5277777777777777,0.7537537537537538,0.5017545389539041,0.4954218044194848,0.4997401328984774,0
0.5203902927195397,0.527027027027027,0.7527527527527527,0.5017405863578492,0.495177633988524,0.4996651376946823,0
0.5211408556417314,0.527027027027027,0.7527527527527527,0.5018312782322061,0.495177633988524,0.4997401328984774,0
0.5206404803602703,0.528028028028028,0.752002002002002,0.5018016289655894,0.4951165913807838,0.4997558295690392,0
0.5201401050788093,0.5272772772772771,0.7525025025025025,0.5019533634476865,0.4952386765962642,0.4997401328984774,0
0.5206404803602703,0.5275275275275274,0.7532532532532532,0.5018766241693845,0.4951619373179622,0.4998325688473412,0
0.5208906680010009,0.5272772772772771,0.7522522522522521,0.5018312782322061,0.4951462406474005,0.4996651376946823,0
0.5206404803602703,0.528028028028028,0.7527527527527527,0.5018312782322061,0.49513228805134557,0.4997854788356559,0
0.5201401050788093,0.5275275275275274,0.7530030030030029,0.5018312782322061,0.4951462406474005,0.4997401328984774,0
0.5206404803602703,0.5277777777777777,0.7527527527527527,0.5018312782322061,0.4951165913807838,0.4997261803024225,0
0.5203902927195397,0.5272772772772771,0.752002002002002,0.5019533634476865,0.4952386765962642,0.49977152623960097,0
0.5208906680010009,0.5275275275275274,0.7530030030030029,0.5018609274988227,0.4951933306590858,0.4997401328984774,0
0.5206404803602703,0.5277777777777777,0.7525025025025025,0.5019533634476865,0.495100894710222,0.4997401328984774,0
0.5201401050788093,0.5275275275275274,0.7525025025025025,0.5018469749027679,0.4951462406474005,0.4997401328984774,0
0.5203902927195397,0.5275275275275274,0.752002002002002,0.5018923208399463,0.4951619373179622,0.4997401328984774,0
0.5208906680010009,0.5275275275275274,0.7527527527527527,0.5018016289655894,0.49513228805134557,0.49977152623960097,0
0.5206404803602703,0.5275275275275274,0.7527527527527527,0.5018312782322061,0.4951462406474005,0.4998011755062176,0
0.5201401050788093,0.5275275275275274,0.7522522522522521,0.5018609274988227,0.4952386765962642,0.499694786961299,0
0.5203902927195397,0.5275275275275274,0.7525025025025025,0.5018312782322061,0.4952090273296475,0.49977152623960097,0
0.5206404803602703,0.5275275275275274,0.752002002002002,0.5017702356244659,0.4952229799257024,0.4997558295690392,0
0.5206404803602703,0.528028028028028,0.7525025025025025,0.5017545389539041,0.495177633988524,0.4997854788356559,0
0.5201401050788093,0.5277777777777777,0.7522522522522521,0.5018312782322061,0.4951619373179622,0.4997401328984774,0
0.5203902927195397,0.5275275275275274,0.7522522522522521,0.5018766241693845,0.4952386765962642,0.499694786961299,0
0.5206404803602703,0.5272772772772771,0.7527527527527527,0.5018923208399463,0.4951933306590858,0.4997401328984774,0
0.5206404803602703,0.5277777777777777,0.7525025025025025,0.5017545389539041,0.495177633988524,0.4997854788356559,0
0.5203902927195397,0.5275275275275274,0.7527527527527527,0.5018155815616443,0.495177633988524,0.49971048363186077,0
0.5201401050788093,0.5275275275275274,0.7522522522522521,0.5018923208399463,0.4951933306590858,0.4996790902907372,0
0.5203902927195397,0.5275275275275274,0.7525025025025025,0.5018609274988227,0.4952386765962642,0.4997854788356559,0
0.5206404803602703,0.5277777777777777,0.7530030030030029,0.5018609274988227,0.4952090273296475,0.4998011755062176,0
0.5203902927195397,0.5275275275275274,0.752002002002002,0.5018016289655894,0.4951462406474005,0.4996790902907372,0
0.5206404803602703,0.5277777777777777,0.7530030030030029,0.5019080175105081,0.49513228805134557,0.49971048363186077,0
0.5208906680010009,0.5277777777777777,0.7517517517517517,0.5018155815616443,0.495177633988524,0.49971048363186077,0
0.5203902927195397,0.5277777777777777,0.7530030030030029,0.5017859322950277,0.4952840225334426,0.4998168721767794,0
0.5203902927195397,0.5275275275275274,0.7527527527527527,0.5017702356244659,0.4951933306590858,0.4996790902907372,0
0.5203902927195397,0.5275275275275274,0.7522522522522521,0.5017859322950277,0.495177633988524,0.4997558295690392,0
0.5203902927195397,0.5275275275275274,0.7527527527527527,0.5018469749027679,0.495177633988524,0.4996790902907372,0
0.5208906680010009,0.5275275275275274,0.752002002002002,0.5018155815616443,0.4951462406474005,0.49977152623960097,0
0.5208906680010009,0.5282782782782782,0.7525025025025025,0.5017702356244659,0.4953450651411828,0.4997261803024225,0
0.5201401050788093,0.5275275275275274,0.7517517517517517,0.5017702356244659,0.4952683258628809,0.4997261803024225,0
0.5206404803602703,0.5272772772772771,0.7527527527527527,0.5018766241693845,0.4951165913807838,0.4997261803024225,0
0.5201401050788093,0.5272772772772771,0.7517517517517517,0.5018016289655894,0.4952386765962642,0.4997261803024225,0
0.5206404803602703,0.5272772772772771,0.752002002002002,0.5018312782322061,0.4952090273296475,0.49977152623960097,0
0.5203902927195397,0.5275275275275274,0.7530030030030029,0.5018155815616443,0.495177633988524,0.49977152623960097,0
0.5208906680010009,0.5275275275275274,0.7525025025025025,0.5019376667771247,0.495177633988524,0.4997854788356559,0
0.5201401050788093,0.5277777777777777,0.7525025025025025,0.5017545389539041,0.4952090273296475,0.499694786961299,0
0.5203902927195397,0.5275275275275274,0.7522522522522521,0.5018469749027679,0.4952229799257024,0.49977152623960097,0
0.5201401050788093,0.5275275275275274,0.7527527527527527,0.5018766241693845,0.4952229799257024,0.4997854788356559,0
0.5203902927195397,0.5275275275275274,0.7525025025025025,0.5018469749027679,0.495177633988524,0.49977152623960097,0
0.5206404803602703,0.5277777777777777,0.7525025025025025,0.5018312782322061,0.4952229799257024,0.4997401328984774,0
0.5188891668751565,0.5290290290290289,0.7545045045045045,0.5019533634476865,0.495406107748923,0.49977152623960097,0
0.5206404803602703,0.5277777777777777,0.7489989989989989,0.5018155815616443,0.4950398521024818,0.4997261803024225,0
0.5193895421566176,0.527027027027027,0.7537537537537538,0.5017859322950277,0.4953921551528681,0.4997401328984774,0
0.5203902927195397,0.5272772772772771,0.7525025025025025,0.5017545389539041,0.4952229799257024,0.49977152623960097,0
0.5203902927195397,0.5277777777777777,0.7532532532532532,0.5018155815616443,0.4951933306590858,0.4997558295690392,0
0.5203902927195397,0.5277777777777777,0.752002002002002,0.5018766241693845,0.4951462406474005,0.4997401328984774,0
0.5203902927195397,0.5275275275275274,0.7530030030030029,0.5017405863578492,0.4951619373179622,0.4997558295690392,0
0.5203902927195397,0.5275275275275274,0.7522522522522521,0.5018312782322061,0.495177633988524,0.4998011755062176,0
0.5206404803602703,0.5277777777777777,0.7527527527527527,0.5017859322950277,0.4951619373179622,0.49971048363186077,0
0.5203902927195397,0.5275275275275274,0.7522522522522521,0.5018016289655894,0.4951165913807838,0.4997261803024225,0
0.5203902927195397,0.5277777777777777,0.7522522522522521,0.5018155815616443,0.495177633988524,0.4997401328984774,0
0.5206404803602703,0.5275275275275274,0.7525025025025025,0.5018766241693845,0.4952090273296475,0.49971048363186077,0
0.5206404803602703,0.5277777777777777,0.7527527527527527,0.5018609274988227,0.49513228805134557,0.4996790902907372,0
0.5203902927195397,0.5277777777777777,0.7522522522522521,0.5018469749027679,0.4951933306590858,0.499694786961299,0
0.5203902927195397,0.5275275275275274,0.7522522522522521,0.5018312782322061,0.4952229799257024,0.4997558295690392,0
0.5206404803602703,0.5275275275275274,0.7525025025025025,0.5018923208399463,0.495177633988524,0.4997558295690392,0
0.5216412309231925,0.5272772772772771,0.7525025025025025,0.5019080175105081,0.4951619373179622,0.4998168721767794,0
0.5198899174380787,0.5275275275275274,0.7527527527527527,0.5018312782322061,0.4952090273296475,0.4997261803024225,0
0.5206404803602703,0.5267767767767767,0.752002002002002,0.5018155815616443,0.4952683258628809,0.4997558295690392,0
0.521391043282462,0.5275275275275274,0.7527527527527527,0.5019219701065629,0.4952229799257024,0.4997261803024225,0
0.5206404803602703,0.5272772772772771,0.7522522522522521,0.5018312782322061,0.4951933306590858,0.4997401328984774,0
0.5196397297973482,0.5277777777777777,0.7530030030030029,0.5018312782322061,0.495177633988524,0.49977152623960097,0
0.5198899174380787,0.5275275275275274,0.752002002002002,0.5018312782322061,0.4951619373179622,0.499694786961299,0
0.5211408556417314,0.5272772772772771,0.7525025025025025,0.5018923208399463,0.495177633988524,0.4998168721767794,0
0.5208906680010009,0.5275275275275274,0.7525025025025025,0.5018609274988227,0.4951165913807838,0.4997401328984774,0
0.5203902927195397,0.5277777777777777,0.7527527527527527,0.5018016289655894,0.4951619373179622,0.49971048363186077,0
0.5208906680010009,0.5282782782782782,0.7537537537537538,0.5019533634476865,0.49468929312660237,0.4998168721767794,0
0.5201401050788093,0.5277777777777777,0.7525025025025025,0.5018312782322061,0.4954514536861015,0.4997558295690392,0
0.5203902927195397,0.527027027027027,0.7525025025025025,0.5018609274988227,0.495177633988524,0.4997401328984774,0
0.521391043282462,0.5277777777777777,0.7525025025025025,0.5018312782322061,0.4951165913807838,0.4997261803024225,0
0.5198899174380787,0.528028028028028,0.7517517517517517,0.5018609274988227,0.4950258995064269,0.49977152623960097,0
0.5198899174380787,0.5275275275275274,0.7530030030030029,0.5019533634476865,0.49513228805134557,0.4998325688473412,0
0.5206404803602703,0.5275275275275274,0.7532532532532532,0.5017702356244659,0.4951462406474005,0.4997401328984774,0
0.5208906680010009,0.5277777777777777,0.7525025025025025,0.5018312782322061,0.4951933306590858,0.4997558295690392,0
0.5203902927195397,0.528028028028028,0.7525025025025025,0.5018766241693845,0.4952386765962642,0.4996337443535588,0
0.5201401050788093,0.5275275275275274,0.7525025025025025,0.5018923208399463,0.495177633988524,0.49971048363186077,0
0.5206404803602703,0.5275275275275274,0.7527527527527527,0.5019376667771247,0.495177633988524,0.4997401328984774,0
0.5211408556417314,0.5272772772772771,0.752002002002002,0.5018016289655894,0.495177633988524,0.4996790902907372,0
0.5206404803602703,0.5275275275275274,0.7522522522522521,0.5018469749027679,0.4951933306590858,0.49964944102412057,0
0.5201401050788093,0.5275275275275274,0.7517517517517517,0.5018016289655894,0.4952683258628809,0.499694786961299,0
0.5201401050788093,0.5275275275275274,0.7527527527527527,0.5018923208399463,0.4951619373179622,0.4998622181139578,0
0.5206404803602703,0.5277777777777777,0.752002002002002,0.5018469749027679,0.4952229799257024,0.4997401328984774,0
0.5206404803602703,0.5277777777777777,0.7527527527527527,0.5018766241693845,0.4952229799257024,0.4997261803024225,0
0.5201401050788093,0.5277777777777777,0.752002002002002,0.5017859322950277,0.4952229799257024,0.499694786961299,0
0.5198899174380787,0.5275275275275274,0.7532532532532532,0.5018469749027679,0.49513228805134557,0.49971048363186077,0
0.5206404803602703,0.5277777777777777,0.7522522522522521,0.5018155815616443,0.4952229799257024,0.4997558295690392,0
0.5208906680010009,0.5272772772772771,0.7525025025025025,0.5018312782322061,0.4951462406474005,0.49977152623960097,0
0.5211408556417314,0.5275275275275274,0.752002002002002,0.5018469749027679,0.495100894710222,0.49971048363186077,0
0.5196397297973482,0.527027027027027,0.7510010010010009,0.5016934963461639,0.4952997192040044,0.49977152623960097,0
0.5201401050788093,0.5277777777777777,0.7540040040040039,0.5018312782322061,0.4952229799257024,0.499694786961299,0
0.5211408556417314,0.5275275275275274,0.7522522522522521,0.5018155815616443,0.495177633988524,0.4996651376946823,0
0.5203902927195397,0.5275275275275274,0.7527527527527527,0.5018155815616443,0.4952386765962642,0.4997401328984774,0
0.5201401050788093,0.5272772772772771,0.7525025025025025,0.5018312782322061,0.4952090273296475,0.4997558295690392,0
0.5201401050788093,0.5277777777777777,0.7525025025025025,0.5018469749027679,0.4951462406474005,0.49971048363186077,0
0.5208906680010009,0.5275275275275274,0.7525025025025025,0.5018312782322061,0.4951619373179622,0.4997558295690392,0
0.5206404803602703,0.5275275275275274,0.7522522522522521,0.5018155815616443,0.4951165913807838,0.4997261803024225,0
0.5198899174380787,0.5275275275275274,0.7527527527527527,0.5019219701065629,0.4951619373179622,0.4997261803024225,0
0.519139354515887,0.528028028028028,0.7542542542542542,0.5018312782322061,0.4950398521024818,0.49977152623960097,0
0.5203902927195397,0.5287787787787787,0.7537537537537538,0.5021207946003453,0.49488811762038476,0.4997558295690392,0
0.5211408556417314,0.5275275275275274,0.7507507507507507,0.5018923208399463,0.4951165913807838,0.4998168721767794,0
0.5203902927195397,0.5265265265265264,0.7522522522522521,0.5017702356244659,0.495177633988524,0.49977152623960097,0
0.5201401050788093,0.5272772772772771,0.7522522522522521,0.5019219701065629,0.49513228805134557,0.4997558295690392,0
0.5206404803602703,0.5272772772772771,0.7517517517517517,0.5018155815616443,0.4952229799257024,0.4997261803024225,0
0.5201401050788093,0.5275275275275274,0.7517517517517517,0.5017859322950277,0.4951933306590858,0.4996790902907372,0
0.5203902927195397,0.5277777777777777,0.7532532532532532,0.5018155815616443,0.4950555487730436,0.4998168721767794,0
0.521391043282462,0.5272772772772771,0.7517517517517517,0.5018155815616443,0.4951165913807838,0.49977152623960097,0
0.5221416062046537,0.5265265265265264,0.7492492492492492,0.5015103685229433,0.4954514536861015,0.4996790902907372,0
0.5186389792344259,0.528028028028028,0.7572572572572571,0.5017405863578492,0.4955438896349652,0.4996790902907372,0
0.5203902927195397,0.5265265265265264,0.7525025025025025,0.5014964159268884,0.4950398521024818,0.4997558295690392,0
0.5201401050788093,0.528028028028028,0.7535035035035034,0.5018155815616443,0.4953154158745662,0.4997261803024225,0
0.5201401050788093,0.5285285285285284,0.7535035035035034,0.5020457993965503,0.4949788094947416,0.4998011755062176,0
0.5206404803602703,0.5282782782782782,0.7522522522522521,0.5018469749027679,0.495177633988524,0.4997261803024225,0
0.5208906680010009,0.5275275275275274,0.7522522522522521,0.5018312782322061,0.495254373266826,0.499694786961299,0
0.5201401050788093,0.5275275275275274,0.7530030030030029,0.5018155815616443,0.4951165913807838,0.4997401328984774,0
0.5196397297973482,0.5277777777777777,0.752002002002002,0.5018469749027679,0.4952090273296475,0.499694786961299,0
0.5201401050788093,0.5275275275275274,0.752002002002002,0.5017859322950277,0.495254373266826,0.49977152623960097,0
0.5208906680010009,0.5275275275275274,0.752002002002002,0.5017248896872875,0.4952229799257024,0.49977152623960097,0
0.5208906680010009,0.5277777777777777,0.7530030030030029,0.5018766241693845,0.49513228805134557,0.499694786961299,0
0.5201401050788093,0.5275275275275274,0.7527527527527527,0.5018155815616443,0.4951165913807838,0.4997558295690392,0
0.5201401050788093,0.528028028028028,0.7532532532532532,0.5018155815616443,0.495177633988524,0.4997401328984774,0
0.5206404803602703,0.5277777777777777,0.7522522522522521,0.5018312782322061,0.4952386765962642,0.4997401328984774,0
0.5208906680010009,0.5275275275275274,0.7530030030030029,0.5018155815616443,0.4951933306590858,0.4997261803024225,0
0.5203902927195397,0.5275275275275274,0.7525025025025025,0.5018469749027679,0.495177633988524,0.49977152623960097,0
0.5203902927195397,0.5277777777777777,0.7527527527527527,0.5018312782322061,0.4952090273296475,0.4997401328984774,0
0.5201401050788093,0.5272772772772771,0.752002002002002,0.5017545389539041,0.4952386765962642,0.4997558295690392,0
0.5208906680010009,0.5275275275275274,0.7525025025025025,0.5018766241693845,0.4950555487730436,0.4997261803024225,0
0.5206404803602703,0.5275275275275274,0.7532532532532532,0.5019080175105081,0.4951165913807838,0.4996790902907372,0
0.5203902927195397,0.5275275275275274,0.7522522522522521,0.5017702356244659,0.4952683258628809,0.4997558295690392,0
0.5201401050788093,0.5275275275275274,0.7522522522522521,0.5018155815616443,0.49513228805134557,0.49971048363186077,0
0.5208906680010009,0.5277777777777777,0.7527527527527527,0.5018609274988227,0.495254373266826,0.4998168721767794,0
0.5208906680010009,0.5277777777777777,0.7525025025025025,0.5017859322950277,0.4951165913807838,0.4996790902907372,0
0.5203902927195397,0.5275275275275274,0.7527527527527527,0.5018469749027679,0.49507124544360537,0.4997558295690392,0
0.5203902927195397,0.5272772772772771,0.752002002002002,0.5018016289655894,0.4952386765962642,0.4997558295690392,0
0.5206404803602703,0.5277777777777777,0.7522522522522521,0.5018609274988227,0.49513228805134557,0.4998325688473412,0
0.5203902927195397,0.5277777777777777,0.7522522522522521,0.5017859322950277,0.49513228805134557,0.4997261803024225,0
0.5206404803602703,0.5277777777777777,0.7527527527527527,0.5017702356244659,0.4952229799257024,0.4997261803024225,0
0.5203902927195397,0.5275275275275274,0.752002002002002,0.5019080175105081,0.495177633988524,0.4997261803024225,0
0.5203902927195397,0.5275275275275274,0.7522522522522521,0.5018312782322061,0.4951933306590858,0.4996790902907372,0
0.5206404803602703,0.5277777777777777,0.7527527527527527,0.5018469749027679,0.4951619373179622,0.4997261803024225,0
0.5203902927195397,0.5277777777777777,0.7525025025025025,0.5018469749027679,0.4951619373179622,0.49977152623960097,0
0.5203902927195397,0.5275275275275274,0.7527527527527527,0.5019219701065629,0.4951462406474005,0.49964944102412057,0
0.5206404803602703,0.5275275275275274,0.7525025025025025,0.5018469749027679,0.4951619373179622,0.4998011755062176,0
0.5206404803602703,0.5277777777777777,0.7522522522522521,0.5018312782322061,0.4952090273296475,0.4997558295690392,0
0.5201401050788093,0.5275275275275274,0.7530030030030029,0.5018469749027679,0.4952229799257024,0.4996790902907372,0
0.5208906680010009,0.527027027027027,0.752002002002002,0.5018766241693845,0.4950555487730436,0.4997854788356559,0
0.5208906680010009,0.528028028028028,0.7522522522522521,0.5018609274988227,0.4950851980396603,0.4997261803024225,0
0.5208906680010009,0.5275275275275274,0.7522522522522521,0.5018923208399463,0.4951462406474005,0.4997261803024225,0
0.5206404803602703,0.5275275275275274,0.7530030030030029,0.5018923208399463,0.4952090273296475,0.4997854788356559,0
0.5203902927195397,0.5275275275275274,0.7525025025025025,0.5017859322950277,0.4951933306590858,0.49971048363186077,0
0.5206404803602703,0.5275275275275274,0.7522522522522521,0.5018469749027679,0.495177633988524,0.4996790902907372,0
0.5203902927195397,0.5275275275275274,0.7525025025025025,0.5018469749027679,0.4952090273296475,0.4997854788356559,0
0.5201401050788093,0.5275275275275274,0.7525025025025025,0.5018609274988227,0.4951462406474005,0.4997261803024225,0
0.5201401050788093,0.5275275275275274,0.7525025025025025,0.5019219701065629,0.4952229799257024,0.499694786961299,0
0.5203902927195397,0.5275275275275274,0.7525025025025025,0.5017859322950277,0.4952229799257024,0.49971048363186077,0
0.5206404803602703,0.5277777777777777,0.7527527527527527,0.5017859322950277,0.49513228805134557,0.49964944102412057,0
0.5203902927195397,0.5277777777777777,0.7525025025025025,0.5018766241693845,0.4951933306590858,0.49977152623960097,0
0.5206404803602703,0.5277777777777777,0.7522522522522521,0.5019219701065629,0.4951165913807838,0.49971048363186077,0
0.5203902927195397,0.5275275275275274,0.752002002002002,0.5018923208399463,0.4951619373179622,0.4996790902907372,0
0.5208906680010009,0.5275275275275274,0.7532532532532532,0.5018312782322061,0.4951165913807838,0.4997854788356559,0
0.5208906680010009,0.528028028028028,0.7527527527527527,0.5018766241693845,0.4952229799257024,0.4997854788356559,0
0.5206404803602703,0.5275275275275274,0.7522522522522521,0.5018016289655894,0.495254373266826,0.4997401328984774,0
0.5203902927195397,0.5275275275275274,0.7522522522522521,0.5018609274988227,0.4951933306590858,0.4997261803024225,0
0.5203902927195397,0.5277777777777777,0.7527527527527527,0.5018312782322061,0.495254373266826,0.499694786961299,0
0.5208906680010009,0.5277777777777777,0.7527527527527527,0.5018312782322061,0.4952090273296475,0.499694786961299,0
0.5201401050788093,0.5272772772772771,0.7525025025025025,0.5018923208399463,0.495254373266826,0.4997261803024225,0
0.5203902927195397,0.5275275275275274,0.7527527527527527,0.5018312782322061,0.4952386765962642,0.4997261803024225,0
0.5206404803602703,0.5275275275275274,0.7522522522522521,0.5018609274988227,0.495177633988524,0.4997261803024225,0
0.5206404803602703,0.5277777777777777,0.7525025025025025,0.5018469749027679,0.495100894710222,0.4997558295690392,0
0.5206404803602703,0.5277777777777777,0.7527527527527527,0.5018469749027679,0.4952386765962642,0.4998168721767794,0
0.5203902927195397,0.5275275275275274,0.7525025025025025,0.5018609274988227,0.495177633988524,0.4997401328984774,0
0.5203902927195397,0.5275275275275274,0.7522522522522521,0.5018155815616443,0.4951619373179622,0.49971048363186077,0
0.5203902927195397,0.5277777777777777,0.7525025025025025,0.5018609274988227,0.4951619373179622,0.4997558295690392,0
0.5208906680010009,0.5275275275275274,0.7525025025025025,0.5018155815616443,0.495254373266826,0.4997261803024225,0
0.5203902927195397,0.5275275275275274,0.7525025025025025,0.5018312782322061,0.4951619373179622,0.49971048363186077,0
0.5203902927195397,0.5275275275275274,0.7525025025025025,0.5018312782322061,0.4952386765962642,0.49964944102412057,0
0.5203902927195397,0.5277777777777777,0.7527527527527527,0.5018766241693845,0.4952229799257024,0.49977152623960097,0
0.5206404803602703,0.5277777777777777,0.7522522522522521,0.5018312782322061,0.4952997192040044,0.49971048363186077,0
0.5206404803602703,0.5275275275275274,0.7522522522522521,0.5018766241693845,0.4952090273296475,0.4996651376946823,0
0.5203902927195397,0.5277777777777777,0.7525025025025025,0.5018923208399463,0.4951933306590858,0.4997401328984774,0
0.5206404803602703,0.5277777777777777,0.7527527527527527,0.5019219701065629,0.495177633988524,0.49971048363186077,0
0.5206404803602703,0.5272772772772771,0.7522522522522521,0.5019080175105081,0.495177633988524,0.4997854788356559,0
0.5203902927195397,0.5275275275275274,0.7525025025025025,0.5018312782322061,0.495177633988524,0.4997261803024225,0
0.5206404803602703,0.5277777777777777,0.7522522522522521,0.5018609274988227,0.4951933306590858,0.4997558295690392,0
0.5206404803602703,0.5277777777777777,0.7527527527527527,0.5018469749027679,0.4951462406474005,0.4997261803024225,0
0.5206404803602703,0.5275275275275274,0.752002002002002,0.5018766241693845,0.4951619373179622,0.4996790902907372,0
0.5206404803602703,0.5275275275275274,0.7522522522522521,0.5018312782322061,0.4951933306590858,0.4997401328984774,0
0.5203902927195397,0.5277777777777777,0.7525025025025025,0.5019219701065629,0.49513228805134557,0.4997261803024225,0
0.5203902927195397,0.5277777777777777,0.7525025025025025,0.5018766241693845,0.49513228805134557,0.49971048363186077,0
0.5203902927195397,0.5275275275275274,0.7527527527527527,0.5018766241693845,0.495177633988524,0.4997401328984774,0
0.5206404803602703,0.5275275275275274,0.752002002002002,0.5018155815616443,0.4952090273296475,0.4996790902907372,0
0.5206404803602703,0.5277777777777777,0.7530030030030029,0.5018016289655894,0.4951165913807838,0.4998011755062176,0
0.5203902927195397,0.5277777777777777,0.7522522522522521,0.5018766241693845,0.4951933306590858,0.49971048363186077,0
0.5201401050788093,0.5277777777777777,0.7525025025025025,0.5017859322950277,0.4951462406474005,0.49971048363186077,0
0.5206404803602703,0.5275275275275274,0.7522522522522521,0.5018016289655894,0.4952229799257024,0.4996790902907372,0
0.5208906680010009,0.5275275275275274,0.7532532532532532,0.5018155815616443,0.495100894710222,0.49977152623960097,0
0.5206404803602703,0.5277777777777777,0.7530030030030029,0.5018155815616443,0.4952683258628809,0.49971048363186077,0
0.5203902927195397,0.5275275275275274,0.7525025025025025,0.5018312782322061,0.495177633988524,0.499694786961299,0
0.5203902927195397,0.5275275275275274,0.7525025025025025,0.5018155815616443,0.4952090273296475,0.4997558295690392,0
0.5206404803602703,0.5277777777777777,0.7530030030030029,0.5018016289655894,0.49513228805134557,0.4997558295690392,0
0.5211408556417314,0.5275275275275274,0.7525025025025025,0.5018016289655894,0.4951933306590858,0.4997261803024225,0
0.5203902927195397,0.5277777777777777,0.7522522522522521,0.5018469749027679,0.4952683258628809,0.49971048363186077,0
0.5206404803602703,0.5277777777777777,0.7522522522522521,0.5019080175105081,0.4951165913807838,0.49977152623960097,0
0.5206404803602703,0.5275275275275274,0.7530030030030029,0.5018312782322061,0.4952090273296475,0.499694786961299,0
0.5206404803602703,0.5277777777777777,0.7527527527527527,0.5018016289655894,0.49513228805134557,0.4997261803024225,0
0.5206404803602703,0.5275275275275274,0.7522522522522521,0.5017859322950277,0.4952090273296475,0.4997854788356559,0
0.5206404803602703,0.5275275275275274,0.7525025025025025,0.5018469749027679,0.495177633988524,0.4997261803024225,0
0.5208906680010009,0.5275275275275274,0.7525025025025025,0.5018766241693845,0.4952090273296475,0.49977152623960097,0
0.5208906680010009,0.5272772772772771,0.7532532532532532,0.5017702356244659,0.4951462406474005,0.4998011755062176,0
0.5203902927195397,0.5277777777777777,0.7517517517517517,0.5018469749027679,0.495254373266826,0.49971048363186077,0
0.5203902927195397,0.5277777777777777,0.7527527527527527,0.5018766241693845,0.4951933306590858,0.4996651376946823,0
0.5206404803602703,0.5277777777777777,0.7525025025025025,0.5018469749027679,0.4952386765962642,0.49964944102412057,0
0.5206404803602703,0.5275275275275274,0.7525025025025025,0.5017702356244659,0.4951462406474005,0.4997558295690392,0
0.5206404803602703,0.5277777777777777,0.7522522522522521,0.5017248896872875,0.4952683258628809,0.499694786961299,0
0.5206404803602703,0.5272772772772771,0.7527527527527527,0.5018312782322061,0.4951933306590858,0.499694786961299,0
0.5203902927195397,0.5277777777777777,0.7527527527527527,0.5017859322950277,0.4952386765962642,0.4997558295690392,0
0.5208906680010009,0.5277777777777777,0.7527527527527527,0.5018469749027679,0.4951462406474005,0.49971048363186077,0
0.5206404803602703,0.5275275275275274,0.7525025025025025,0.5018312782322061,0.4952997192040044,0.4997401328984774,0
0.5206404803602703,0.528028028028028,0.7527527527527527,0.5017248896872875,0.4951933306590858,0.4997854788356559,0
0.5203902927195397,0.5275275275275274,0.7525025025025025,0.5018609274988227,0.4952090273296475,0.49964944102412057,0
0.5206404803602703,0.5275275275275274,0.7525025025025025,0.5018016289655894,0.4952090273296475,0.4997558295690392,0
0.5206404803602703,0.5275275275275274,0.7522522522522521,0.5018469749027679,0.495177633988524,0.49971048363186077,0
0.5208906680010009,0.5277777777777777,0.7522522522522521,0.5018766241693845,0.49513228805134557,0.4997558295690392,0
0.5206404803602703,0.5277777777777777,0.7525025025025025,0.5018469749027679,0.495177633988524,0.4996790902907372,0
0.5203902927195397,0.5275275275275274,0.7527527527527527,0.5019219701065629,0.4951462406474005,0.4997401328984774,0
0.5206404803602703,0.5277777777777777,0.7522522522522521,0.5018609274988227,0.4951462406474005,0.4997261803024225,0
0.5203902927195397,0.5277777777777777,0.7522522522522521,0.5018923208399463,0.49507124544360537,0.4996651376946823,0
0.5203902927195397,0.5277777777777777,0.7527527527527527,0.5018609274988227,0.4951165913807838,0.4996790902907372,0
0.5206404803602703,0.5275275275275274,0.7522522522522521,0.5019080175105081,0.495177633988524,0.4997261803024225,0
0.5206404803602703,0.5275275275275274,0.7522522522522521,0.5018469749027679,0.495177633988524,0.499694786961299,0
0.5206404803602703,0.5275275275275274,0.7525025025025025,0.5018923208399463,0.4952229799257024,0.4997401328984774,0
0.5206404803602703,0.5277777777777777,0.7530030030030029,0.5019690601182483,0.4952386765962642,0.49971048363186077,0
0.5203902927195397,0.5275275275275274,0.752002002002002,0.5017702356244659,0.4952683258628809,0.4996790902907372,0
0.5206404803602703,0.5277777777777777,0.7522522522522521,0.5018155815616443,0.4952090273296475,0.49971048363186077,0
0.5203902927195397,0.5275275275275274,0.7530030030030029,0.5018312782322061,0.4952840225334426,0.49977152623960097,0
0.5201401050788093,0.5275275275275274,0.7522522522522521,0.5017702356244659,0.495254373266826,0.4997401328984774,0
0.5203902927195397,0.5277777777777777,0.7525025025025025,0.5017545389539041,0.4953154158745662,0.49971048363186077,0
0.5206404803602703,0.5277777777777777,0.7525025025025025,0.5018155815616443,0.4952840225334426,0.4997558295690392,0
0.5203902927195397,0.5277777777777777,0.7522522522522521,0.5017405863578492,0.4952840225334426,0.49977152623960097,0
0.5206404803602703,0.5277777777777777,0.7522522522522521,0.5019080175105081,0.4952229799257024,0.4997558295690392,0
0.5201401050788093,0.528028028028028,0.7522522522522521,0.5018155815616443,0.4952840225334426,0.499694786961299,0
0.5208906680010009,0.5272772772772771,0.7527527527527527,0.5018469749027679,0.4952997192040044,0.4997854788356559,0
0.5206404803602703,0.5275275275275274,0.7525025025025025,0.5018766241693845,0.4953293684706211,0.499694786961299,0
0.5206404803602703,0.5275275275275274,0.7522522522522521,0.5018155815616443,0.4953607618117446,0.4996651376946823,0
0.5203902927195397,0.5277777777777777,0.7525025025025025,0.5018155815616443,0.4953154158745662,0.4997401328984774,0
0.5203902927195397,0.5277777777777777,0.7527527527527527,0.5018469749027679,0.4952229799257024,0.4997854788356559,0
0.5206404803602703,0.5275275275275274,0.7525025025025025,0.5017859322950277,0.4952386765962642,0.4996790902907372,0
0.5203902927195397,0.5275275275275274,0.7527527527527527,0.5018016289655894,0.4952997192040044,0.4996790902907372,0
0.5203902927195397,0.5277777777777777,0.7525025025025025,0.5017405863578492,0.4952840225334426,0.499694786961299,0
0.5203902927195397,0.5275275275275274,0.7525025025025025,0.5017859322950277,0.4952386765962642,0.4997261803024225,0
0.5203902927195397,0.5277777777777777,0.7525025025025025,0.5017702356244659,0.49513228805134557,0.499694786961299,0
0.5201401050788093,0.5275275275275274,0.7522522522522521,0.5018469749027679,0.4951933306590858,0.4997558295690392,0
0.5201401050788093,0.528028028028028,0.7532532532532532,0.5019080175105081,0.4951462406474005,0.4997261803024225,0
0.5206404803602703,0.5277777777777777,0.7517517517517517,0.5017859322950277,0.4951619373179622,0.4996790902907372,0
0.5208906680010009,0.5277777777777777,0.7525025025025025,0.5018469749027679,0.4952229799257024,0.49977152623960097,0
0.5206404803602703,0.5272772772772771,0.7522522522522521,0.5018155815616443,0.4951619373179622,0.4997261803024225,0
0.5203902927195397,0.5277777777777777,0.7530030030030029,0.5018312782322061,0.4951462406474005,0.4997261803024225,0
0.5201401050788093,0.5275275275275274,0.752002002002002,0.5017405863578492,0.495254373266826,0.49964944102412057,0
0.5206404803602703,0.5275275275275274,0.7522522522522521,0.5018469749027679,0.495177633988524,0.4997401328984774,0
0.5206404803602703,0.5272772772772771,0.7525025025025025,0.5018155815616443,0.4952229799257024,0.499694786961299,0
0.5203902927195397,0.5275275275275274,0.7527527527527527,0.5018155815616443,0.495177633988524,0.4996651376946823,0
0.5203902927195397,0.5277777777777777,0.7522522522522521,0.5018609274988227,0.4952683258628809,0.4997261803024225,0
0.5201401050788093,0.5275275275275274,0.7522522522522521,0.5018155815616443,0.495177633988524,0.4998011755062176,0
0.5203902927195397,0.5275275275275274,0.7525025025025025,0.5018312782322061,0.4952229799257024,0.49977152623960097,0
0.5208906680010009,0.5277777777777777,0.7525025025025025,0.5018312782322061,0.4951165913807838,0.499694786961299,0
0.5206404803602703,0.5275275275275274,0.7527527527527527,0.5018469749027679,0.4952229799257024,0.4997261803024225,0
0.5203902927195397,0.5277777777777777,0.7525025025025025,0.5017545389539041,0.49513228805134557,0.4998622181139578,0
0.5203902927195397,0.5275275275275274,0.7525025025025025,0.5018469749027679,0.4951619373179622,0.499694786961299,0
0.5206404803602703,0.5277777777777777,0.7530030030030029,0.5018923208399463,0.4952229799257024,0.49977152623960097,0
0.5206404803602703,0.5275275275275274,0.7527527527527527,0.5017702356244659,0.4952683258628809,0.499694786961299,0
0.5198899174380787,0.527027027027027,0.752002002002002,0.5018609274988227,0.4951933306590858,0.4997558295690392,0
0.5208906680010009,0.5277777777777777,0.7527527527527527,0.5018312782322061,0.49513228805134557,0.4997401328984774,0
0.5206404803602703,0.5277777777777777,0.7522522522522521,0.5018155815616443,0.495254373266826,0.4997401328984774,0
0.5198899174380787,0.5275275275275274,0.7525025025025025,0.5017545389539041,0.4952090273296475,0.4997558295690392,0
0.5201401050788093,0.5275275275275274,0.7517517517517517,0.5018469749027679,0.4952683258628809,0.49977152623960097,0
0.5208906680010009,0.5275275275275274,0.7530030030030029,0.5017702356244659,0.495177633988524,0.4997558295690392,0
0.5211408556417314,0.5277777777777777,0.7527527527527527,0.5019376667771247,0.4952090273296475,0.49977152623960097,0
0.5201401050788093,0.5275275275275274,0.7527527527527527,0.5017859322950277,0.4952229799257024,0.4997854788356559,0
0.5201401050788093,0.5277777777777777,0.7525025025025025,0.5018766241693845,0.4952386765962642,0.4997558295690392,0
0.5206404803602703,0.5277777777777777,0.7527527527527527,0.5018016289655894,0.4951933306590858,0.4997261803024225,0
0.5201401050788093,0.5277777777777777,0.7527527527527527,0.5018609274988227,0.4951462406474005,0.49977152623960097,0
0.5198899174380787,0.5277777777777777,0.7527527527527527,0.5018312782322061,0.495177633988524,0.4996790902907372,0
0.5201401050788093,0.5277777777777777,0.7522522522522521,0.5018155815616443,0.495177633988524,0.499618047682997,0
0.5201401050788093,0.5275275275275274,0.752002002002002,0.5018016289655894,0.495177633988524,0.4997854788356559,0
0.5198899174380787,0.5277777777777777,0.7527527527527527,0.5018766241693845,0.4951619373179622,0.4996790902907372,0
0.5193895421566176,0.5277777777777777,0.7527527527527527,0.5018609274988227,0.495177633988524,0.4997401328984774,0
0.5201401050788093,0.5285285285285284,0.7522522522522521,0.5018609274988227,0.495177633988524,0.499694786961299,0
0.5206404803602703,0.5275275275275274,0.7522522522522521,0.5018155815616443,0.4952386765962642,0.4997558295690392,0
0.5208906680010009,0.5285285285285284,0.7530030030030029,0.5018469749027679,0.49513228805134557,0.499694786961299,0
0.5206404803602703,0.527027027027027,0.752002002002002,0.5018312782322061,0.4951619373179622,0.49977152623960097,0
0.5198899174380787,0.5277777777777777,0.7527527527527527,0.5018016289655894,0.4952229799257024,0.4996790902907372,0
0.5211408556417314,0.528028028028028,0.752002002002002,0.5018609274988227,0.4951619373179622,0.499694786961299,0
0.521391043282462,0.5275275275275274,0.7527527527527527,0.5018609274988227,0.4952386765962642,0.4997854788356559,0
0.521391043282462,0.5267767767767767,0.7517517517517517,0.5018469749027679,0.4952683258628809,0.4997558295690392,0
0.5208906680010009,0.5277777777777777,0.7522522522522521,0.5018312782322061,0.4951165913807838,0.49971048363186077,0
0.5208906680010009,0.5265265265265264,0.7525025025025025,0.5018469749027679,0.4951165913807838,0.4997854788356559,0
0.5211408556417314,0.5277777777777777,0.7530030030030029,0.5018766241693845,0.495177633988524,0.49964944102412057,0
0.5203902927195397,0.5272772772772771,0.752002002002002,0.5018016289655894,0.4952090273296475,0.4997261803024225,0
0.5203902927195397,0.5277777777777777,0.7525025025025025,0.5018923208399463,0.4951933306590858,0.49971048363186077,0
0.5206404803602703,0.5277777777777777,0.7522522522522521,0.5018312782322061,0.4951619373179622,0.49971048363186077,0
0.5206404803602703,0.5272772772772771,0.7530030030030029,0.5018469749027679,0.4952229799257024,0.4996651376946823,0
0.5203902927195397,0.5272772772772771,0.7522522522522521,0.5018766241693845,0.4952090273296475,0.4998011755062176,0
0.5201401050788093,0.5272772772772771,0.7522522522522521,0.5018312782322061,0.4953154158745662,0.4997558295690392,0
0.5206404803602703,0.5277777777777777,0.7527527527527527,0.5019219701065629,0.4951933306590858,0.4996651376946823,0
0.5203902927195397,0.5277777777777777,0.7527527527527527,0.5018469749027679,0.4952229799257024,0.4997401328984774,0
0.5206404803602703,0.528028028028028,0.7525025025025025,0.5018469749027679,0.4951462406474005,0.4997558295690392,0
0.5203902927195397,0.5275275275275274,0.7525025025025025,0.5018766241693845,0.4952683258628809,0.4997854788356559,0
0.5203902927195397,0.528028028028028,0.7527527527527527,0.5018155815616443,0.4951619373179622,0.4997261803024225,0
0.5203902927195397,0.5277777777777777,0.7527527527527527,0.5018312782322061,0.4952090273296475,0.499694786961299,0
0.5201401050788093,0.5275275275275274,0.7525025025025025,0.5018469749027679,0.49513228805134557,0.49977152623960097,0
0.5206404803602703,0.5275275275275274,0.7527527527527527,0.5018312782322061,0.4951462406474005,0.4997261803024225,0
0.5206404803602703,0.5275275275275274,0.7522522522522521,0.5018016289655894,0.4951619373179622,0.4997401328984774,0
0.5206404803602703,0.5275275275275274,0.7525025025025025,0.5018155815616443,0.4952386765962642,0.4997558295690392,0
0.5206404803602703,0.5277777777777777,0.7525025025025025,0.5018766241693845,0.49513228805134557,0.499694786961299,0
0.5201401050788093,0.5275275275275274,0.7525025025025025,0.5018016289655894,0.4952090273296475,0.499694786961299,0
0.5203902927195397,0.5277777777777777,0.7527527527527527,0.5018155815616443,0.4951165913807838,0.4997261803024225,0
0.5206404803602703,0.528028028028028,0.7527527527527527,0.5018312782322061,0.4951462406474005,0.49971048363186077,0
0.5201401050788093,0.5277777777777777,0.7525025025025025,0.5018923208399463,0.495254373266826,0.4998011755062176,0
0.5188891668751565,0.528028028028028,0.7525025025025025,0.5018609274988227,0.4952683258628809,0.49971048363186077,0
0.5193895421566176,0.5287787787787787,0.7527527527527527,0.5018609274988227,0.495177633988524,0.49971048363186077,0
0.5206404803602703,0.5275275275275274,0.7525025025025025,0.5018766241693845,0.4952090273296475,0.4997261803024225,0
0.5211408556417314,0.527027027027027,0.7525025025025025,0.5018469749027679,0.495177633988524,0.49971048363186077,0
0.5203902927195397,0.5275275275275274,0.7525025025025025,0.5018766241693845,0.4952229799257024,0.4997401328984774,0
0.5203902927195397,0.5265265265265264,0.7525025025025025,0.5018609274988227,0.4951462406474005,0.4997401328984774,0
0.5208906680010009,0.5275275275275274,0.7525025025025025,0.5018923208399463,0.4952386765962642,0.4997854788356559,0
0.5211408556417314,0.5272772772772771,0.7525025025025025,0.5018016289655894,0.4951462406474005,0.4997558295690392,0
0.5208906680010009,0.5275275275275274,0.7525025025025025,0.5018609274988227,0.4952229799257024,0.49971048363186077,0
0.5206404803602703,0.527027027027027,0.7522522522522521,0.5018312782322061,0.4951462406474005,0.499694786961299,0
0.5206404803602703,0.5272772772772771,0.752002002002002,0.5018766241693845,0.4951462406474005,0.4997401328984774,0
0.5208906680010009,0.5272772772772771,0.7525025025025025,0.5018155815616443,0.4951933306590858,0.4998011755062176,0
0.5203902927195397,0.5275275275275274,0.7527527527527527,0.5018312782322061,0.4952090273296475,0.4998325688473412,0
0.5201401050788093,0.5275275275275274,0.7530030030030029,0.5018609274988227,0.4952229799257024,0.4997558295690392,0
0.5198899174380787,0.5275275275275274,0.7525025025025025,0.5018923208399463,0.49507124544360537,0.499694786961299,0
0.5203902927195397,0.5285285285285284,0.7527527527527527,0.5018766241693845,0.495177633988524,0.4997261803024225,0
0.5201401050788093,0.5275275275275274,0.7525025025025025,0.5018609274988227,0.4952229799257024,0.499694786961299,0
0.5201401050788093,0.528028028028028,0.7527527527527527,0.5018766241693845,0.49513228805134557,0.49971048363186077,0
0.5206404803602703,0.5277777777777777,0.7522522522522521,0.5018923208399463,0.4953154158745662,0.49971048363186077,0
0.5201401050788093,0.5275275275275274,0.7530030030030029,0.5018469749027679,0.4951462406474005,0.4997854788356559,0
0.5206404803602703,0.5277777777777777,0.7522522522522521,0.5018469749027679,0.4952386765962642,0.49971048363186077,0
0.5203902927195397,0.5275275275275274,0.7527527527527527,0.5018766241693845,0.4952386765962642,0.4997558295690392,0
0.5203902927195397,0.5275275275275274,0.7525025025025025,0.5018609274988227,0.4951462406474005,0.4997261803024225,0
0.5203902927195397,0.5275275275275274,0.7522522522522521,0.5017405863578492,0.4951619373179622,0.4998011755062176,0
0.5203902927195397,0.5275275275275274,0.7527527527527527,0.5018312782322061,0.4951619373179622,0.4997261803024225,0
0.5203902927195397,0.5277777777777777,0.7527527527527527,0.5018312782322061,0.4951462406474005,0.4997401328984774,0
0.5208906680010009,0.5275275275275274,0.7525025025025025,0.5018312782322061,0.4951462406474005,0.4997261803024225,0
0.5203902927195397,0.5275275275275274,0.7522522522522521,0.5018155815616443,0.4951933306590858,0.4997401328984774,0
0.5203902927195397,0.5277777777777777,0.7522522522522521,0.5018609274988227,0.4951462406474005,0.499694786961299,0
0.5203902927195397,0.5275275275275274,0.7525025025025025,0.5018312782322061,0.495177633988524,0.4996790902907372,0
0.5203902927195397,0.5277777777777777,0.7525025025025025,0.5018016289655894,0.495177633988524,0.4997401328984774,0
0.5203902927195397,0.5275275275275274,0.7522522522522521,0.5018469749027679,0.4952229799257024,0.49964944102412057,0
0.5206404803602703,0.5272772772772771,0.7525025025025025,0.5018923208399463,0.4951933306590858,0.49971048363186077,0
0.5206404803602703,0.5277777777777777,0.7525025025025025,0.5018469749027679,0.4951619373179622,0.4997401328984774,0
0.5201401050788093,0.5277777777777777,0.7527527527527527,0.5018155815616443,0.495177633988524,0.499694786961299,0
0.5203902927195397,0.5275275275275274,0.7525025025025025,0.5018312782322061,0.4951933306590858,0.4997558295690392,0
0.5206404803602703,0.5277777777777777,0.7525025025025025,0.5018766241693845,0.49513228805134557,0.499694786961299,0
0.5206404803602703,0.5275275275275274,0.7525025025025025,0.5017859322950277,0.4952229799257024,0.4997401328984774,0
0.5203902927195397,0.5275275275275274,0.7527527527527527,0.5018469749027679,0.49513228805134557,0.4997854788356559,0
0.5203902927195397,0.5277777777777777,0.7525025025025025,0.5019219701065629,0.4952840225334426,0.4997558295690392,0
0.5203902927195397,0.5275275275275274,0.752002002002002,0.5018766241693845,0.495254373266826,0.499694786961299,0
0.5206404803602703,0.5275275275275274,0.752002002002002,0.5018469749027679,0.4951933306590858,0.499694786961299,0
0.5203902927195397,0.5275275275275274,0.7525025025025025,0.5019219701065629,0.4952229799257024,0.4997261803024225,0
0.5203902927195397,0.5272772772772771,0.7522522522522521,0.5018016289655894,0.4952386765962642,0.4997401328984774,0
0.5206404803602703,0.5275275275275274,0.7522522522522521,0.5017545389539041,0.4952090273296475,0.4997558295690392,0
0.5203902927195397,0.5275275275275274,0.7522522522522521,0.5017702356244659,0.495177633988524,0.49977152623960097,0
0.5206404803602703,0.5277777777777777,0.7527527527527527,0.5018155815616443,0.49513228805134557,0.4998011755062176,0
0.5203902927195397,0.5277777777777777,0.7525025025025025,0.5018766241693845,0.4952090273296475,0.49977152623960097,0
0.5201401050788093,0.5277777777777777,0.7525025025025025,0.5019219701065629,0.4951619373179622,0.4997261803024225,0
0.5203902927195397,0.5277777777777777,0.7522522522522521,0.5018312782322061,0.495177633988524,0.4997261803024225,0
0.5208906680010009,0.5277777777777777,0.7525025025025025,0.5018016289655894,0.4952229799257024,0.49971048363186077,0
0.5201401050788093,0.5275275275275274,0.7522522522522521,0.5018155815616443,0.4952840225334426,0.4997261803024225,0
0.5203902927195397,0.5277777777777777,0.7522522522522521,0.5018469749027679,0.4952229799257024,0.4997401328984774,0
0.5201401050788093,0.5275275275275274,0.7525025025025025,0.5017859322950277,0.4952386765962642,0.4998325688473412,0
0.5203902927195397,0.5275275275275274,0.7527527527527527,0.5018016289655894,0.4951933306590858,0.49977152623960097,0
0.5203902927195397,0.5275275275275274,0.752002002002002,0.5018469749027679,0.4951933306590858,0.4997261803024225,0
0.5203902927195397,0.5275275275275274,0.7525025025025025,0.5018469749027679,0.4952229799257024,0.4997558295690392,0
0.5203902927195397,0.528028028028028,0.7522522522522521,0.5018469749027679,0.4951462406474005,0.4996790902907372,0
0.5203902927195397,0.5277777777777777,0.7530030030030029,0.5018609274988227,0.495177633988524,0.4997558295690392,0
0.5203902927195397,0.5277777777777777,0.752002002002002,0.5017702356244659,0.4951619373179622,0.4997854788356559,0
0.5203902927195397,0.5272772772772771,0.7522522522522521,0.5018923208399463,0.4951619373179622,0.4997854788356559,0
0.5206404803602703,0.5277777777777777,0.7527527527527527,0.5017859322950277,0.4952090273296475,0.4997401328984774,0
0.5206404803602703,0.5277777777777777,0.7522522522522521,0.5018312782322061,0.4952229799257024,0.49977152623960097,0
0.5203902927195397,0.528028028028028,0.7527527527527527,0.5017702356244659,0.4952229799257024,0.49977152623960097,0
0.5201401050788093,0.5272772772772771,0.7525025025025025,0.5017859322950277,0.495254373266826,0.4997261803024225,0
0.5206404803602703,0.5277777777777777,0.7525025025025025,0.5018766241693845,0.4951462406474005,0.499694786961299,0
0.5206404803602703,0.5275275275275274,0.7522522522522521,0.5017545389539041,0.4952840225334426,0.4997401328984774,0
0.5206404803602703,0.5275275275275274,0.7527527527527527,0.5018766241693845,0.4952229799257024,0.4997854788356559,0
0.5201401050788093,0.5275275275275274,0.7525025025025025,0.5018155815616443,0.4951933306590858,0.499694786961299,0
0.5203902927195397,0.528028028028028,0.7527527527527527,0.5019080175105081,0.49507124544360537,0.4997854788356559,0
0.5203902927195397,0.5275275275275274,0.7527527527527527,0.5017545389539041,0.4951933306590858,0.4998168721767794,0
0.5206404803602703,0.5277777777777777,0.7525025025025025,0.5018766241693845,0.4952090273296475,0.49977152623960097,0
0.5201401050788093,0.5275275275275274,0.7525025025025025,0.5018766241693845,0.4952840225334426,0.49971048363186077,0
0.5206404803602703,0.5275275275275274,0.7527527527527527,0.5018312782322061,0.4952386765962642,0.49977152623960097,0
0.5203902927195397,0.5277777777777777,0.7527527527527527,0.5018016289655894,0.49513228805134557,0.4998482655179029,0
0.5203902927195397,0.5277777777777777,0.7522522522522521,0.5018312782322061,0.4952090273296475,0.4997261803024225,0
0.5203902927195397,0.5272772772772771,0.7522522522522521,0.5018469749027679,0.49513228805134557,0.4997854788356559,0
0.5206404803602703,0.5275275275275274,0.7527527527527527,0.5018766241693845,0.495177633988524,0.4998011755062176,0
0.5208906680010009,0.5275275275275274,0.7530030030030029,0.5018469749027679,0.4951462406474005,0.4997261803024225,0
0.5203902927195397,0.5275275275275274,0.7517517517517517,0.5018016289655894,0.4952229799257024,0.49971048363186077,0
0.5201401050788093,0.5277777777777777,0.7527527527527527,0.5018766241693845,0.4952229799257024,0.4997558295690392,0
0.5198899174380787,0.5275275275275274,0.752002002002002,0.5018016289655894,0.4951462406474005,0.4998168721767794,0
0.5206404803602703,0.5275275275275274,0.7530030030030029,0.5018766241693845,0.495177633988524,0.4998011755062176,0
0.5201401050788093,0.5275275275275274,0.752002002002002,0.5018923208399463,0.4952229799257024,0.49971048363186077,0
0.5203902927195397,0.5275275275275274,0.7527527527527527,0.5018016289655894,0.4952229799257024,0.49977152623960097,0
0.5203902927195397,0.5275275275275274,0.7522522522522521,0.5018609274988227,0.4951619373179622,0.4996651376946823,0
0.5203902927195397,0.5277777777777777,0.7535035035035034,0.5018469749027679,0.4952229799257024,0.4997854788356559,0
0.5201401050788093,0.5275275275275274,0.752002002002002,0.5018469749027679,0.4952386765962642,0.4997558295690392,0
0.5203902927195397,0.5275275275275274,0.7525025025025025,0.5018469749027679,0.4952229799257024,0.4997854788356559,0
0.5203902927195397,0.5275275275275274,0.7525025025025025,0.5018609274988227,0.4951933306590858,0.4997261803024225,0
0.5206404803602703,0.5275275275275274,0.7527527527527527,0.5019080175105081,0.49513228805134557,0.49977152623960097,0
0.5203902927195397,0.5275275275275274,0.7522522522522521,0.5018312782322061,0.4952683258628809,0.4997401328984774,0
0.5203902927195397,0.5277777777777777,0.752002002002002,0.5018016289655894,0.4952090273296475,0.4997558295690392,0
0.5203902927195397,0.5272772772772771,0.7525025025025025,0.5019219701065629,0.4951619373179622,0.49971048363186077,0
0.5203902927195397,0.5272772772772771,0.7525025025025025,0.5019080175105081,0.495177633988524,0.4997401328984774,0
0.5201401050788093,0.5277777777777777,0.752002002002002,0.5018766241693845,0.4952386765962642,0.49971048363186077,0
0.5201401050788093,0.5272772772772771,0.752002002002002,0.5018469749027679,0.495177633988524,0.4998011755062176,0
0.5203902927195397,0.5275275275275274,0.7527527527527527,0.5018016289655894,0.495177633988524,0.4998011755062176,0
0.5203902927195397,0.5275275275275274,0.7522522522522521,0.5018609274988227,0.4952229799257024,0.4997261803024225,0
0.5203902927195397,0.5277777777777777,0.7522522522522521,0.5018312782322061,0.4952090273296475,0.4997261803024225,0
0.5203902927195397,0.5277777777777777,0.7517517517517517,0.5018312782322061,0.4952090273296475,0.4997854788356559,0
0.5203902927195397,0.5275275275275274,0.7525025025025025,0.5019219701065629,0.4951619373179622,0.4997558295690392,0
0.5203902927195397,0.5277777777777777,0.7522522522522521,0.5018312782322061,0.4952386765962642,0.49977152623960097,0
0.5203902927195397,0.5275275275275274,0.7527527527527527,0.5018155815616443,0.4951933306590858,0.4997261803024225,0
0.5203902927195397,0.5275275275275274,0.7522522522522521,0.5018312782322061,0.4952229799257024,0.4996651376946823,0
0.5203902927195397,0.5277777777777777,0.7530030030030029,0.5017859322950277,0.4952386765962642,0.49977152623960097,0
0.5203902927195397,0.5277777777777777,0.7527527527527527,0.5018016289655894,0.4951933306590858,0.4997558295690392,0
0.5206404803602703,0.5277777777777777,0.7527527527527527,0.5018312782322061,0.4951619373179622,0.4996790902907372,0
0.5203902927195397,0.5275275275275274,0.752002002002002,0.5018016289655894,0.495177633988524,0.4997401328984774,0
0.5203902927195397,0.5275275275275274,0.7527527527527527,0.5018469749027679,0.4952090273296475,0.4997558295690392,0
0.5206404803602703,0.5272772772772771,0.7525025025025025,0.5018312782322061,0.4952386765962642,0.4997261803024225,0
0.5203902927195397,0.5275275275275274,0.7527527527527527,0.5018469749027679,0.4951619373179622,0.49971048363186077,0
0.5203902927195397,0.5275275275275274,0.7522522522522521,0.5019219701065629,0.4952229799257024,0.4998011755062176,0
0.5206404803602703,0.5277777777777777,0.7527527527527527,0.5018155815616443,0.4951462406474005,0.4997558295690392,0
0.5203902927195397,0.5277777777777777,0.7527527527527527,0.5018312782322061,0.495177633988524,0.4997261803024225,0
0.5203902927195397,0.5275275275275274,0.7522522522522521,0.5018469749027679,0.4951619373179622,0.4998011755062176,0
0.5203902927195397,0.5275275275275274,0.7522522522522521,0.5018016289655894,0.49513228805134557,0.4996790902907372,0
0.5206404803602703,0.5277777777777777,0.7527527527527527,0.5018469749027679,0.4952229799257024,0.4997558295690392,0
0.5203902927195397,0.5277777777777777,0.7527527527527527,0.5018469749027679,0.4952386765962642,0.4997401328984774,0
0.5203902927195397,0.5275275275275274,0.7527527527527527,0.5018766241693845,0.4951619373179622,0.4997401328984774,0
0.5203902927195397,0.5275275275275274,0.752002002002002,0.5019080175105081,0.4951619373179622,0.499694786961299,0
0.5201401050788093,0.5275275275275274,0.752002002002002,0.5018469749027679,0.4951933306590858,0.4998011755062176,0
0.5203902927195397,0.5275275275275274,0.7527527527527527,0.5018312782322061,0.4952090273296475,0.499694786961299,0
0.5203902927195397,0.5275275275275274,0.7522522522522521,0.5018312782322061,0.4951933306590858,0.4997261803024225,0
0.5203902927195397,0.5275275275275274,0.7522522522522521,0.5018016289655894,0.4952090273296475,0.4997558295690392,0
0.5201401050788093,0.5275275275275274,0.752002002002002,0.5018155815616443,0.495177633988524,0.4996651376946823,0
0.5203902927195397,0.5275275275275274,0.7527527527527527,0.5018155815616443,0.4952229799257024,0.4997401328984774,0
0.5201401050788093,0.5275275275275274,0.7525025025025025,0.5018609274988227,0.4952229799257024,0.499694786961299,0
0.5203902927195397,0.5277777777777777,0.7522522522522521,0.5019219701065629,0.4952090273296475,0.4997261803024225,0
0.5203902927195397,0.5272772772772771,0.7522522522522521,0.5018469749027679,0.4951619373179622,0.4997261803024225,0
0.5206404803602703,0.5277777777777777,0.7527527527527527,0.5018155815616443,0.4951933306590858,0.49977152623960097,0
0.5203902927195397,0.5277777777777777,0.7527527527527527,0.5018312782322061,0.4952090273296475,0.49971048363186077,0
0.5203902927195397,0.5275275275275274,0.7527527527527527,0.5018923208399463,0.4951462406474005,0.4997261803024225,0
0.5201401050788093,0.5275275275275274,0.752002002002002,0.5018312782322061,0.4952090273296475,0.4997261803024225,0
0.5206404803602703,0.5277777777777777,0.7530030030030029,0.5018923208399463,0.4951933306590858,0.4997558295690392,0
0.5201401050788093,0.5275275275275274,0.752002002002002,0.5018469749027679,0.4950851980396603,0.499694786961299,0
0.5203902927195397,0.5275275275275274,0.7522522522522521,0.5018469749027679,0.4952386765962642,0.4997558295690392,0
0.5201401050788093,0.5275275275275274,0.752002002002002,0.5018312782322061,0.4952840225334426,0.49964944102412057,0
0.5206404803602703,0.5277777777777777,0.7530030030030029,0.5018609274988227,0.495177633988524,0.4997401328984774,0
0.5203902927195397,0.5275275275275274,0.7530030030030029,0.5018923208399463,0.495177633988524,0.49977152623960097,0
0.5203902927195397,0.5277777777777777,0.7522522522522521,0.5018155815616443,0.4952229799257024,0.4997261803024225,0
0.5206404803602703,0.5275275275275274,0.7527527527527527,0.5018469749027679,0.4952090273296475,0.4997401328984774,0
0.5203902927195397,0.5275275275275274,0.7532532532532532,0.5018609274988227,0.4952090273296475,0.499694786961299,0
0.5208906680010009,0.5277777777777777,0.7532532532532532,0.5018609274988227,0.4951462406474005,0.4997854788356559,0
0.5201401050788093,0.5275275275275274,0.752002002002002,0.5018469749027679,0.4952840225334426,0.4996651376946823,0
0.5203902927195397,0.5275275275275274,0.7522522522522521,0.5018609274988227,0.4952090273296475,0.49971048363186077,0
0.5203902927195397,0.5275275275275274,0.7527527527527527,0.5018923208399463,0.49513228805134557,0.4998011755062176,0
0.5203902927195397,0.528028028028028,0.7530030030030029,0.5018469749027679,0.4951462406474005,0.49977152623960097,0
0.5203902927195397,0.5275275275275274,0.7525025025025025,0.5018155815616443,0.4952090273296475,0.4997261803024225,0
0.5208906680010009,0.5275275275275274,0.7527527527527527,0.5018469749027679,0.4952683258628809,0.49977152623960097,0
0.5206404803602703,0.5272772772772771,0.752002002002002,0.5017859322950277,0.49513228805134557,0.4997401328984774,0
0.5203902927195397,0.5277777777777777,0.7530030030030029,0.5017859322950277,0.4951462406474005,0.49977152623960097,0
0.5206404803602703,0.5267767767767767,0.7517517517517517,0.5018469749027679,0.4952229799257024,0.4996651376946823,0
0.5211408556417314,0.5275275275275274,0.7525025025025025,0.5018609274988227,0.4951165913807838,0.4997261803024225,0
0.5198899174380787,0.5287787787787787,0.7525025025025025,0.5018469749027679,0.49513228805134557,0.499694786961299,0
0.5201401050788093,0.5277777777777777,0.7532532532532532,0.5018469749027679,0.4951619373179622,0.4996790902907372,0
0.5198899174380787,0.528028028028028,0.7522522522522521,0.5018312782322061,0.495254373266826,0.4997401328984774,0
0.5198899174380787,0.528028028028028,0.7525025025025025,0.5019080175105081,0.4952229799257024,0.499694786961299,0
0.5206404803602703,0.5277777777777777,0.7527527527527527,0.5018609274988227,0.4951619373179622,0.49971048363186077,0
0.5196397297973482,0.5277777777777777,0.7530030030030029,0.5018923208399463,0.495177633988524,0.4997261803024225,0
0.5206404803602703,0.5272772772772771,0.7517517517517517,0.5018312782322061,0.4952090273296475,0.4996651376946823,0
0.5208906680010009,0.5282782782782782,0.7515015015015014,0.5017702356244659,0.4952090273296475,0.4997261803024225,0
0.5203902927195397,0.5277777777777777,0.7530030030030029,0.5018469749027679,0.4952090273296475,0.4997854788356559,0
0.5201401050788093,0.5267767767767767,0.7525025025025025,0.5018469749027679,0.4952229799257024,0.4996337443535588,0
0.5201401050788093,0.5272772772772771,0.752002002002002,0.5018923208399463,0.495177633988524,0.4997261803024225,0
0.5193895421566176,0.5287787787787787,0.7522522522522521,0.5018155815616443,0.495177633988524,0.4997261803024225,0
0.5203902927195397,0.5285285285285284,0.7530030030030029,0.5019219701065629,0.4951165913807838,0.499694786961299,0
0.5206404803602703,0.5267767767767767,0.7525025025025025,0.5017859322950277,0.4952386765962642,0.4997401328984774,0
0.5196397297973482,0.5277777777777777,0.7522522522522521,0.5018923208399463,0.495254373266826,0.4997558295690392,0
0.5218914185639231,0.528028028028028,0.7517517517517517,0.5018609274988227,0.4951619373179622,0.49977152623960097,0
0.5201401050788093,0.5250250250250249,0.7527527527527527,0.5016934963461639,0.4951933306590858,0.4997854788356559,0
0.5198899174380787,0.5285285285285284,0.7522522522522521,0.5019533634476865,0.4952386765962642,0.49971048363186077,0
0.5206404803602703,0.5272772772772771,0.7527527527527527,0.5018469749027679,0.49513228805134557,0.4997401328984774,0
0.5201401050788093,0.528028028028028,0.7525025025025025,0.5018469749027679,0.495177633988524,0.499694786961299,0
0.5203902927195397,0.5277777777777777,0.7525025025025025,0.5018016289655894,0.4952840225334426,0.4997401328984774,0
0.5206404803602703,0.5275275275275274,0.752002002002002,0.5017859322950277,0.4952229799257024,0.499694786961299,0
0.5208906680010009,0.5275275275275274,0.7522522522522521,0.5018469749027679,0.49513228805134557,0.49977152623960097,0
0.5203902927195397,0.5275275275275274,0.7515015015015014,0.5018312782322061,0.495177633988524,0.4997558295690392,0
0.5206404803602703,0.527027027027027,0.7530030030030029,0.5018016289655894,0.495254373266826,0.499694786961299,0
0.5208906680010009,0.527027027027027,0.7525025025025025,0.5018469749027679,0.4952386765962642,0.49971048363186077,0
0.5206404803602703,0.5272772772772771,0.752002002002002,0.5018155815616443,0.495177633988524,0.4997261803024225,0
0.5201401050788093,0.5275275275275274,0.7525025025025025,0.5018469749027679,0.4951619373179622,0.49977152623960097,0
0.5203902927195397,0.5277777777777777,0.7527527527527527,0.5018469749027679,0.49501020283586517,0.4998011755062176,0
0.5208906680010009,0.5277777777777777,0.7527527527527527,0.5018016289655894,0.4951165913807838,0.49977152623960097,0
0.5203902927195397,0.5277777777777777,0.7522522522522521,0.5018155815616443,0.4952090273296475,0.4997558295690392,0
0.5206404803602703,0.5272772772772771,0.7525025025025025,0.5018469749027679,0.49513228805134557,0.4996790902907372,0
0.5208906680010009,0.5272772772772771,0.7525025025025025,0.5018155815616443,0.4952229799257024,0.49971048363186077,0
0.5206404803602703,0.5275275275275274,0.7525025025025025,0.5018155815616443,0.495254373266826,0.49977152623960097,0
0.519139354515887,0.5312812812812812,0.7602602602602602,0.5022585764863875,0.49565027817988383,0.4999686066588765,0
0.5231423567675758,0.5252752752752752,0.7404904904904904,0.5016777996756021,0.4948113783420828,0.4997558295690392,0
0.5223917938453841,0.5287787787787787,0.7484984984984985,0.5021521879414689,0.495788060065926,0.49958839841638036,0
0.5188891668751565,0.527027027027027,0.7530030030030029,0.501602804471807,0.4954514536861015,0.4996023510124353,0
0.5201401050788093,0.5282782782782782,0.7547547547547546,0.5019533634476865,0.49501020283586517,0.49977152623960097,0
0.5206404803602703,0.5267767767767767,0.7512512512512513,0.5018923208399463,0.49494916022812496,0.4998325688473412,0
0.5203902927195397,0.5282782782782782,0.7517517517517517,0.5018766241693845,0.4952840225334426,0.4996790902907372,0
0.5203902927195397,0.5272772772772771,0.7522522522522521,0.5018923208399463,0.4952090273296475,0.4997261803024225,0
0.5203902927195397,0.5275275275275274,0.752002002002002,0.5018016289655894,0.4952229799257024,0.49971048363186077,0
0.5201401050788093,0.5275275275275274,0.7517517517517517,0.5018016289655894,0.4953154158745662,0.4996651376946823,0
0.5206404803602703,0.5275275275275274,0.7522522522522521,0.5018766241693845,0.4951165913807838,0.4997558295690392,0
0.5203902927195397,0.5275275275275274,0.7527527527527527,0.5018312782322061,0.4951933306590858,0.49971048363186077,0
0.5206404803602703,0.5275275275275274,0.7525025025025025,0.5018155815616443,0.49513228805134557,0.4997558295690392,0
0.5203902927195397,0.5277777777777777,0.7527527527527527,0.5018469749027679,0.4951619373179622,0.4997401328984774,0
0.5206404803602703,0.5275275275275274,0.7522522522522521,0.5018766241693845,0.49513228805134557,0.49971048363186077,0
0.5216412309231925,0.5277777777777777,0.7540040040040039,0.5018766241693845,0.4948113783420828,0.4998482655179029,0
0.5201401050788093,0.527027027027027,0.7507507507507507,0.5018312782322061,0.4953450651411828,0.499694786961299,0
0.5203902927195397,0.5275275275275274,0.7515015015015014,0.5018923208399463,0.4951933306590858,0.4998482655179029,0
0.5203902927195397,0.5272772772772771,0.7530030030030029,0.5018312782322061,0.495254373266826,0.49977152623960097,0
0.5206404803602703,0.5275275275275274,0.7527527527527527,0.5018312782322061,0.4951933306590858,0.499694786961299,0
0.5208906680010009,0.5275275275275274,0.7525025025025025,0.5018312782322061,0.4953293684706211,0.49977152623960097,0
0.5206404803602703,0.5272772772772771,0.752002002002002,0.5018312782322061,0.4952090273296475,0.4997261803024225,0
0.5201401050788093,0.5275275275275274,0.7527527527527527,0.5018312782322061,0.495177633988524,0.49977152623960097,0
0.5203902927195397,0.5275275275275274,0.7527527527527527,0.5018155815616443,0.49513228805134557,0.4997401328984774,0
0.5206404803602703,0.5275275275275274,0.7530030030030029,0.5018469749027679,0.4951619373179622,0.4998011755062176,0
0.5206404803602703,0.5277777777777777,0.7515015015015014,0.5018469749027679,0.495177633988524,0.4996790902907372,0
0.5196397297973482,0.5275275275275274,0.7530030030030029,0.5016638470795473,0.4956049322427054,0.4996023510124353,0
0.5391543657743308,0.5345345345345345,0.7737737737737738,0.5025934387917051,0.49389573922597974,0.5001831278232206,0
0.5321491118338756,0.5332832832832832,0.7705205205205206,0.5028393532971729,0.4928737115649581,0.5006714686851422,0
0.5153865399049289,0.5225225225225224,0.7374874874874874,0.5010063309904599,0.49644383208050646,0.499389573922598,0
0.5201401050788093,0.5307807807807807,0.761011011011011,0.5020457993965503,0.495177633988524,0.4997854788356559,0
0.5198899174380787,0.5287787787787787,0.7572572572572571,0.5018766241693845,0.4950258995064269,0.49977152623960097,0
0.5208906680010009,0.5292792792792792,0.7515015015015014,0.5019219701065629,0.4951933306590858,0.4996790902907372,0
0.5201401050788093,0.5272772772772771,0.7525025025025025,0.5018609274988227,0.4953154158745662,0.4997401328984774,0
0.5203902927195397,0.5275275275275274,0.7525025025025025,0.5018923208399463,0.4951619373179622,0.49971048363186077,0
0.5206404803602703,0.5275275275275274,0.7527527527527527,0.5019690601182483,0.4951165913807838,0.4998011755062176,0
0.5206404803602703,0.5272772772772771,0.752002002002002,0.5018923208399463,0.4952386765962642,0.4997401328984774,0
0.5206404803602703,0.5275275275275274,0.7530030030030029,0.5018766241693845,0.4951462406474005,0.499694786961299,0
0.5203902927195397,0.5277777777777777,0.7525025025025025,0.5018923208399463,0.49513228805134557,0.4997558295690392,0
0.5206404803602703,0.5275275275275274,0.7527527527527527,0.5017702356244659,0.4951165913807838,0.4997261803024225,0
0.5203902927195397,0.5272772772772771,0.752002002002002,0.5017859322950277,0.4952090273296475,0.4997558295690392,0
0.5206404803602703,0.5272772772772771,0.7525025025025025,0.5018923208399463,0.495254373266826,0.4997401328984774,0
0.5203902927195397,0.5275275275275274,0.7525025025025025,0.5018609274988227,0.4951933306590858,0.4997261803024225,0
0.5203902927195397,0.5277777777777777,0.7527527527527527,0.5018312782322061,0.4951933306590858,0.4997401328984774,0
0.5208906680010009,0.5275275275275274,0.752002002002002,0.5019219701065629,0.4951619373179622,0.49971048363186077,0
0.5203902927195397,0.5275275275275274,0.7527527527527527,0.5018469749027679,0.495254373266826,0.4997854788356559,0
0.5203902927195397,0.5275275275275274,0.7525025025025025,0.5018312782322061,0.495254373266826,0.49971048363186077,0
0.5198899174380787,0.5272772772772771,0.7527527527527527,0.5018155815616443,0.495177633988524,0.499694786961299,0
0.5206404803602703,0.5275275275275274,0.7522522522522521,0.5018155815616443,0.4952229799257024,0.4997558295690392,0
0.5208906680010009,0.5275275275275274,0.7525025025025025,0.5018469749027679,0.4951619373179622,0.4997558295690392,0
0.5201401050788093,0.5272772772772771,0.7530030030030029,0.5018609274988227,0.4951933306590858,0.4997401328984774,0
0.5201401050788093,0.5275275275275274,0.7525025025025025,0.5018609274988227,0.4951933306590858,0.4997558295690392,0
0.5203902927195397,0.5272772772772771,0.7522522522522521,0.5018766241693845,0.4952683258628809,0.499694786961299,0
0.5206404803602703,0.5275275275275274,0.7522522522522521,0.5018609274988227,0.4952840225334426,0.4997854788356559,0
0.5203902927195397,0.5272772772772771,0.7527527527527527,0.5018016289655894,0.49513228805134557,0.4997261803024225,0
0.5203902927195397,0.5275275275275274,0.7525025025025025,0.5018766241693845,0.4951462406474005,0.49971048363186077,0
0.5203902927195397,0.5275275275275274,0.7522522522522521,0.5018312782322061,0.495254373266826,0.4997854788356559,0
0.5206404803602703,0.5275275275275274,0.752002002002002,0.5018609274988227,0.495177633988524,0.4997261803024225,0
0.5206404803602703,0.5277777777777777,0.7530030030030029,0.5018766241693845,0.4951619373179622,0.4997401328984774,0
0.5198899174380787,0.5277777777777777,0.7522522522522521,0.5018016289655894,0.495177633988524,0.4997261803024225,0
0.5203902927195397,0.5275275275275274,0.7525025025025025,0.5018923208399463,0.495254373266826,0.4998325688473412,0
0.5203902927195397,0.5277777777777777,0.7522522522522521,0.5018609274988227,0.495254373266826,0.49971048363186077,0
0.5206404803602703,0.5275275275275274,0.7527527527527527,0.5019533634476865,0.4951619373179622,0.4997401328984774,0
0.5201401050788093,0.5275275275275274,0.7522522522522521,0.5018016289655894,0.4951462406474005,0.49977152623960097,0
0.5201401050788093,0.5277777777777777,0.752002002002002,0.5018609274988227,0.4951619373179622,0.49971048363186077,0
0.5203902927195397,0.5275275275275274,0.7527527527527527,0.5018923208399463,0.4951933306590858,0.49971048363186077,0
0.5208906680010009,0.5275275275275274,0.7527527527527527,0.5018155815616443,0.49513228805134557,0.4997261803024225,0
0.5201401050788093,0.5275275275275274,0.7522522522522521,0.5017405863578492,0.495177633988524,0.49977152623960097,0
0.5203902927195397,0.5277777777777777,0.752002002002002,0.5018469749027679,0.4951933306590858,0.4997558295690392,0
0.5203902927195397,0.5275275275275274,0.7525025025025025,0.5018016289655894,0.4952090273296475,0.4996790902907372,0
0.5206404803602703,0.5275275275275274,0.7532532532532532,0.5018016289655894,0.495177633988524,0.4996651376946823,0
0.5208906680010009,0.5275275275275274,0.7532532532532532,0.5018766241693845,0.4952090273296475,0.4996790902907372,0
0.5201401050788093,0.5275275275275274,0.752002002002002,0.5018469749027679,0.495254373266826,0.4997401328984774,0
0.5203902927195397,0.5275275275275274,0.7527527527527527,0.5018609274988227,0.4951462406474005,0.4997401328984774,0
0.5206404803602703,0.5275275275275274,0.7530030030030029,0.5018016289655894,0.495177633988524,0.4997558295690392,0
0.5203902927195397,0.5275275275275274,0.7532532532532532,0.5018312782322061,0.4951462406474005,0.4998011755062176,0
0.5201401050788093,0.5275275275275274,0.752002002002002,0.5018923208399463,0.4952229799257024,0.4997261803024225,0
0.5203902927195397,0.5277777777777777,0.7530030030030029,0.5019080175105081,0.495100894710222,0.49977152623960097,0
0.5206404803602703,0.5277777777777777,0.7527527527527527,0.5018016289655894,0.4951462406474005,0.49977152623960097,0
0.5206404803602703,0.5277777777777777,0.7527527527527527,0.5018312782322061,0.495100894710222,0.49977152623960097,0
0.5203902927195397,0.5275275275275274,0.7515015015015014,0.5018016289655894,0.4952090273296475,0.4996651376946823,0
0.5203902927195397,0.5272772772772771,0.7527527527527527,0.5018155815616443,0.495254373266826,0.4997261803024225,0
0.5203902927195397,0.5275275275275274,0.7522522522522521,0.5018469749027679,0.4952090273296475,0.4996651376946823,0
0.5203902927195397,0.5275275275275274,0.7530030030030029,0.5018766241693845,0.4951165913807838,0.4996651376946823,0
0.5203902927195397,0.5275275275275274,0.7517517517517517,0.5018155815616443,0.4951933306590858,0.4997401328984774,0
0.5206404803602703,0.5277777777777777,0.7530030030030029,0.5019080175105081,0.49513228805134557,0.4997261803024225,0
0.5206404803602703,0.5275275275275274,0.7527527527527527,0.5019219701065629,0.4951462406474005,0.4997854788356559,0
0.5203902927195397,0.5275275275275274,0.7527527527527527,0.5017859322950277,0.495177633988524,0.49971048363186077,0
0.5206404803602703,0.5275275275275274,0.752002002002002,0.5018155815616443,0.4952090273296475,0.4997261803024225,0
0.5203902927195397,0.5272772772772771,0.7522522522522521,0.5018155815616443,0.495177633988524,0.49971048363186077,0
0.5206404803602703,0.5275275275275274,0.7527527527527527,0.5018016289655894,0.49507124544360537,0.4997401328984774,0
0.5203902927195397,0.5275275275275274,0.7525025025025025,0.5018016289655894,0.4952229799257024,0.4996651376946823,0
0.5203902927195397,0.5275275275275274,0.7522522522522521,0.5018155815616443,0.4951619373179622,0.4997558295690392,0
0.5206404803602703,0.5275275275275274,0.752002002002002,0.5017405863578492,0.4952683258628809,0.4997558295690392,0
0.5206404803602703,0.5275275275275274,0.7530030030030029,0.5018609274988227,0.495177633988524,0.4997261803024225,0
0.5201401050788093,0.5277777777777777,0.7525025025025025,0.5018155815616443,0.4952090273296475,0.49971048363186077,0
0.5203902927195397,0.5275275275275274,0.7522522522522521,0.5018312782322061,0.4952229799257024,0.4997261803024225,0
0.5203902927195397,0.5275275275275274,0.752002002002002,0.5019219701065629,0.4952090273296475,0.49971048363186077,0
0.5203902927195397,0.5275275275275274,0.7527527527527527,0.5018312782322061,0.495100894710222,0.4997558295690392,0
0.5201401050788093,0.5275275275275274,0.7522522522522521,0.5019080175105081,0.495254373266826,0.4996790902907372,0
0.5203902927195397,0.5275275275275274,0.7522522522522521,0.5018312782322061,0.4951619373179622,0.49971048363186077,0
0.5203902927195397,0.5275275275275274,0.752002002002002,0.5018155815616443,0.495177633988524,0.4997261803024225,0
